 Al Density=2.6989 Thickness=0.2 microns
 Photon Energy (eV), Transmission
    10.000      0.39267E-11
    19.980      0.61935    
    29.960      0.61426    
    39.940      0.62760    
    49.920      0.68119    
    59.900      0.75465    
    69.880      0.74116    
    79.860      0.11864E-01
    89.840      0.43052E-02
    99.820      0.30007E-02
    109.80      0.22760E-02
    119.78      0.18245E-02
    129.76      0.20771E-02
    139.74      0.31083E-02
    149.72      0.44179E-02
    159.70      0.65034E-02
    169.68      0.91805E-02
    179.66      0.12751E-01
    189.64      0.20973E-01
    199.62      0.31905E-01
    209.60      0.45765E-01
    219.58      0.62350E-01
    229.56      0.79686E-01
    239.54      0.97380E-01
    249.52      0.11628    
    259.50      0.13614    
    269.48      0.15804    
    279.46      0.18575    
    289.44      0.21419    
    299.42      0.24299    
    309.40      0.27185    
    319.38      0.30048    
    329.36      0.32868    
    339.34      0.35628    
    349.32      0.38315    
    359.30      0.40894    
    369.28      0.43186    
    379.26      0.45369    
    389.24      0.47469    
    399.22      0.49486    
    409.20      0.51420    
    419.18      0.53273    
    429.16      0.55046    
    439.14      0.56797    
    449.12      0.58555    
    459.10      0.60237    
    469.08      0.61841    
    479.06      0.63368    
    489.04      0.64824    
    499.02      0.66219    
    509.00      0.67568    
    518.98      0.68863    
    528.96      0.70091    
    538.94      0.71255    
    548.92      0.72362    
    558.90      0.73429    
    568.88      0.74460    
    578.86      0.75453    
    588.84      0.76402    
    598.82      0.77306    
    608.80      0.78167    
    618.78      0.78986    
    628.76      0.79769    
    638.74      0.80529    
    648.72      0.81271    
    658.70      0.81990    
    668.68      0.82674    
    678.66      0.83287    
    688.64      0.83845    
    698.62      0.84369    
    708.60      0.84882    
    718.58      0.85389    
    728.56      0.85881    
    738.54      0.86352    
    748.52      0.86802    
    758.50      0.87233    
    768.48      0.87646    
    778.46      0.88043    
    788.44      0.88425    
    798.42      0.88793    
    808.40      0.89145    
    818.38      0.89483    
    828.36      0.89807    
    838.34      0.90118    
    848.32      0.90416    
    858.30      0.90703    
    868.28      0.90979    
    878.26      0.91244    
    888.24      0.91499    
    898.22      0.91744    
    908.20      0.91980    
    918.18      0.92207    
    928.16      0.92426    
    938.14      0.92637    
    948.12      0.92840    
    958.10      0.93035    
    968.08      0.93224    
    978.06      0.93406    
    988.04      0.93581    
    998.02      0.93750    
    1008.0      0.93912    
    1018.0      0.94068    
    1028.0      0.94215    
    1037.9      0.94359    
    1047.9      0.94499    
    1057.9      0.94636    
    1067.9      0.94770    
    1077.9      0.94899    
    1087.8      0.95024    
    1097.8      0.95145    
    1107.8      0.95262    
    1117.8      0.95375    
    1127.8      0.95485    
    1137.7      0.95591    
    1147.7      0.95694    
    1157.7      0.95793    
    1167.7      0.95890    
    1177.7      0.95983    
    1187.6      0.96074    
    1197.6      0.96162    
    1207.6      0.96247    
    1217.6      0.96330    
    1227.6      0.96410    
    1237.5      0.96488    
    1247.5      0.96563    
    1257.5      0.96636    
    1267.5      0.96706    
    1277.5      0.96774    
    1287.4      0.96840    
    1297.4      0.96905    
    1307.4      0.96967    
    1317.4      0.97028    
    1327.4      0.97087    
    1337.3      0.97144    
    1347.3      0.97200    
    1357.3      0.97255    
    1367.3      0.97308    
    1377.3      0.97359    
    1387.2      0.97410    
    1397.2      0.97459    
    1407.2      0.97506    
    1417.2      0.97553    
    1427.2      0.97598    
    1437.1      0.97643    
    1447.1      0.97686    
    1457.1      0.97728    
    1467.1      0.97769    
    1477.1      0.97810    
    1487.0      0.97850    
    1497.0      0.97890    
    1507.0      0.97930    
    1517.0      0.97969    
    1527.0      0.98007    
    1536.9      0.98044    
    1546.9      0.98081    
    1556.9      0.98116    
    1566.9      0.80057    
    1576.9      0.80322    
    1586.8      0.80583    
    1596.8      0.80839    
    1606.8      0.81091    
    1616.8      0.81338    
    1626.8      0.81581    
    1636.7      0.81820    
    1646.7      0.82054    
    1656.7      0.82285    
    1666.7      0.82511    
    1676.7      0.82734    
    1686.6      0.82952    
    1696.6      0.83167    
    1706.6      0.83378    
    1716.6      0.83586    
    1726.6      0.83791    
    1736.5      0.83998    
    1746.5      0.84202    
    1756.5      0.84403    
    1766.5      0.84601    
    1776.5      0.84797    
    1786.4      0.84989    
    1796.4      0.85180    
    1806.4      0.85367    
    1816.4      0.85550    
    1826.4      0.85731    
    1836.3      0.85909    
    1846.3      0.86084    
    1856.3      0.86255    
    1866.3      0.86424    
    1876.3      0.86590    
    1886.2      0.86754    
    1896.2      0.86915    
    1906.2      0.87073    
    1916.2      0.87228    
    1926.2      0.87381    
    1936.1      0.87532    
    1946.1      0.87680    
    1956.1      0.87825    
    1966.1      0.87969    
    1976.1      0.88110    
    1986.0      0.88249    
    1996.0      0.88385    
    2006.0      0.88517    
    2016.0      0.88647    
    2026.0      0.88776    
    2035.9      0.88907    
    2045.9      0.89036    
    2055.9      0.89163    
    2065.9      0.89289    
    2075.9      0.89413    
    2085.8      0.89535    
    2095.8      0.89655    
    2105.8      0.89774    
    2115.8      0.89891    
    2125.8      0.90006    
    2135.7      0.90119    
    2145.7      0.90231    
    2155.7      0.90341    
    2165.7      0.90450    
    2175.7      0.90558    
    2185.6      0.90663    
    2195.6      0.90768    
    2205.6      0.90870    
    2215.6      0.90972    
    2225.6      0.91072    
    2235.5      0.91170    
    2245.5      0.91267    
    2255.5      0.91363    
    2265.5      0.91458    
    2275.5      0.91551    
    2285.4      0.91643    
    2295.4      0.91733    
    2305.4      0.91823    
    2315.4      0.91911    
    2325.4      0.91998    
    2335.3      0.92083    
    2345.3      0.92168    
    2355.3      0.92251    
    2365.3      0.92334    
    2375.3      0.92415    
    2385.2      0.92495    
    2395.2      0.92574    
    2405.2      0.92652    
    2415.2      0.92729    
    2425.2      0.92805    
    2435.1      0.92880    
    2445.1      0.92953    
    2455.1      0.93026    
    2465.1      0.93098    
    2475.1      0.93169    
    2485.0      0.93240    
    2495.0      0.93309    
    2505.0      0.93377    
    2515.0      0.93444    
    2525.0      0.93511    
    2534.9      0.93576    
    2544.9      0.93641    
    2554.9      0.93705    
    2564.9      0.93768    
    2574.9      0.93830    
    2584.8      0.93892    
    2594.8      0.93952    
    2604.8      0.94012    
    2614.8      0.94071    
    2624.8      0.94130    
    2634.7      0.94188    
    2644.7      0.94245    
    2654.7      0.94301    
    2664.7      0.94356    
    2674.7      0.94411    
    2684.6      0.94465    
    2694.6      0.94518    
    2704.6      0.94571    
    2714.6      0.94623    
    2724.6      0.94675    
    2734.5      0.94726    
    2744.5      0.94776    
    2754.5      0.94826    
    2764.5      0.94875    
    2774.5      0.94923    
    2784.4      0.94971    
    2794.4      0.95018    
    2804.4      0.95065    
    2814.4      0.95111    
    2824.4      0.95156    
    2834.3      0.95201    
    2844.3      0.95246    
    2854.3      0.95289    
    2864.3      0.95333    
    2874.3      0.95376    
    2884.2      0.95418    
    2894.2      0.95460    
    2904.2      0.95501    
    2914.2      0.95542    
    2924.2      0.95582    
    2934.1      0.95622    
    2944.1      0.95662    
    2954.1      0.95701    
    2964.1      0.95739    
    2974.1      0.95777    
    2984.0      0.95815    
    2994.0      0.95852    
    3004.0      0.95889    
    3014.0      0.95925    
    3024.0      0.95961    
    3033.9      0.95997    
    3043.9      0.96032    
    3053.9      0.96066    
    3063.9      0.96101    
    3073.9      0.96135    
    3083.8      0.96168    
    3093.8      0.96201    
    3103.8      0.96234    
    3113.8      0.96267    
    3123.8      0.96299    
    3133.7      0.96330    
    3143.7      0.96362    
    3153.7      0.96393    
    3163.7      0.96423    
    3173.7      0.96454    
    3183.6      0.96483    
    3193.6      0.96513    
    3203.6      0.96542    
    3213.6      0.96571    
    3223.6      0.96600    
    3233.5      0.96628    
    3243.5      0.96656    
    3253.5      0.96684    
    3263.5      0.96712    
    3273.5      0.96739    
    3283.4      0.96766    
    3293.4      0.96792    
    3303.4      0.96819    
    3313.4      0.96845    
    3323.4      0.96870    
    3333.3      0.96896    
    3343.3      0.96921    
    3353.3      0.96946    
    3363.3      0.96970    
    3373.3      0.96995    
    3383.2      0.97019    
    3393.2      0.97043    
    3403.2      0.97066    
    3413.2      0.97090    
    3423.2      0.97113    
    3433.1      0.97136    
    3443.1      0.97158    
    3453.1      0.97181    
    3463.1      0.97203    
    3473.1      0.97225    
    3483.0      0.97247    
    3493.0      0.97268    
    3503.0      0.97290    
    3513.0      0.97311    
    3523.0      0.97332    
    3532.9      0.97352    
    3542.9      0.97373    
    3552.9      0.97393    
    3562.9      0.97413    
    3572.9      0.97433    
    3582.8      0.97452    
    3592.8      0.97472    
    3602.8      0.97491    
    3612.8      0.97510    
    3622.8      0.97529    
    3632.7      0.97548    
    3642.7      0.97566    
    3652.7      0.97584    
    3662.7      0.97602    
    3672.7      0.97620    
    3682.6      0.97638    
    3692.6      0.97656    
    3702.6      0.97673    
    3712.6      0.97690    
    3722.6      0.97707    
    3732.5      0.97724    
    3742.5      0.97741    
    3752.5      0.97758    
    3762.5      0.97774    
    3772.5      0.97790    
    3782.4      0.97807    
    3792.4      0.97823    
    3802.4      0.97838    
    3812.4      0.97854    
    3822.4      0.97869    
    3832.3      0.97885    
    3842.3      0.97900    
    3852.3      0.97915    
    3862.3      0.97930    
    3872.3      0.97945    
    3882.2      0.97959    
    3892.2      0.97974    
    3902.2      0.97988    
    3912.2      0.98003    
    3922.2      0.98017    
    3932.1      0.98031    
    3942.1      0.98045    
    3952.1      0.98058    
    3962.1      0.98072    
    3972.1      0.98085    
    3982.0      0.98099    
    3992.0      0.98112    
    4002.0      0.98125    
    4012.0      0.98138    
    4022.0      0.98151    
    4031.9      0.98164    
    4041.9      0.98176    
    4051.9      0.98189    
    4061.9      0.98201    
    4071.9      0.98213    
    4081.8      0.98226    
    4091.8      0.98238    
    4101.8      0.98250    
    4111.8      0.98261    
    4121.8      0.98273    
    4131.7      0.98285    
    4141.7      0.98296    
    4151.7      0.98308    
    4161.7      0.98319    
    4171.7      0.98330    
    4181.6      0.98342    
    4191.6      0.98353    
    4201.6      0.98364    
    4211.6      0.98374    
    4221.6      0.98385    
    4231.5      0.98396    
    4241.5      0.98406    
    4251.5      0.98417    
    4261.5      0.98427    
    4271.5      0.98438    
    4281.4      0.98448    
    4291.4      0.98458    
    4301.4      0.98468    
    4311.4      0.98478    
    4321.4      0.98488    
    4331.3      0.98497    
    4341.3      0.98507    
    4351.3      0.98517    
    4361.3      0.98526    
    4371.3      0.98536    
    4381.2      0.98545    
    4391.2      0.98554    
    4401.2      0.98564    
    4411.2      0.98573    
    4421.2      0.98582    
    4431.1      0.98591    
    4441.1      0.98600    
    4451.1      0.98609    
    4461.1      0.98617    
    4471.1      0.98626    
    4481.0      0.98635    
    4491.0      0.98643    
    4501.0      0.98652    
    4511.0      0.98660    
    4521.0      0.98668    
    4530.9      0.98677    
    4540.9      0.98685    
    4550.9      0.98693    
    4560.9      0.98701    
    4570.9      0.98709    
    4580.8      0.98717    
    4590.8      0.98725    
    4600.8      0.98733    
    4610.8      0.98740    
    4620.8      0.98748    
    4630.7      0.98756    
    4640.7      0.98763    
    4650.7      0.98771    
    4660.7      0.98778    
    4670.7      0.98786    
    4680.6      0.98793    
    4690.6      0.98800    
    4700.6      0.98807    
    4710.6      0.98814    
    4720.6      0.98822    
    4730.5      0.98829    
    4740.5      0.98836    
    4750.5      0.98842    
    4760.5      0.98849    
    4770.5      0.98856    
    4780.4      0.98863    
    4790.4      0.98870    
    4800.4      0.98876    
    4810.4      0.98883    
    4820.4      0.98889    
    4830.3      0.98896    
    4840.3      0.98902    
    4850.3      0.98909    
    4860.3      0.98915    
    4870.3      0.98921    
    4880.2      0.98928    
    4890.2      0.98934    
    4900.2      0.98940    
    4910.2      0.98946    
    4920.2      0.98952    
    4930.1      0.98958    
    4940.1      0.98964    
    4950.1      0.98970    
    4960.1      0.98976    
    4970.1      0.98982    
    4980.0      0.98988    
    4990.0      0.98993    
    5000.0      0.98999    
