V Density=6.11 Thickness=0.2 microns
 Photon Energy (eV), Transmission
    10.000      0.21535E-04
    11.000      0.21102E-05
    12.000      0.25939E-06
    13.000      0.64565E-07
    14.000      0.25636E-07
    15.000      0.20016E-07
    16.000      0.10204E-07
    17.000      0.88570E-08
    18.000      0.10979E-07
    19.000      0.35226E-07
    20.000      0.10485E-06
    21.000      0.48740E-06
    22.000      0.21781E-05
    23.000      0.93715E-05
    24.000      0.30197E-04
    25.000      0.71349E-04
    26.000      0.15384E-03
    27.000      0.30362E-03
    28.000      0.68601E-03
    29.000      0.14154E-02
    30.000      0.21761E-02
    31.000      0.28969E-02
    32.000      0.32125E-02
    33.000      0.32396E-02
    34.000      0.29254E-02
    35.000      0.26439E-02
    36.000      0.21398E-02
    37.000      0.15383E-02
    38.000      0.10646E-02
    39.000      0.54060E-03
    40.000      0.22637E-03
    41.000      0.58547E-04
    42.000      0.12031E-04
    43.000      0.25561E-05
    44.000      0.81571E-06
    45.000      0.34425E-06
    46.000      0.18982E-06
    47.000      0.11371E-06
    48.000      0.88395E-07
    49.000      0.11831E-06
    50.000      0.17104E-06
    51.000      0.24346E-06
    52.000      0.34660E-06
    53.000      0.49649E-06
    54.000      0.70269E-06
    55.000      0.10392E-05
    56.000      0.18936E-05
    57.000      0.35072E-05
    58.000      0.62483E-05
    59.000      0.10741E-04
    60.000      0.18729E-04
    61.000      0.32307E-04
    62.000      0.53790E-04
    63.000      0.84368E-04
    64.000      0.12425E-03
    65.000      0.17564E-03
    66.000      0.23937E-03
    67.000      0.31883E-03
    68.000      0.41881E-03
    69.000      0.54302E-03
    70.000      0.69551E-03
    71.000      0.88067E-03
    72.000      0.11031E-02
    73.000      0.13678E-02
    74.000      0.16880E-02
    75.000      0.20665E-02
    76.000      0.25080E-02
    77.000      0.29934E-02
    78.000      0.34664E-02
    79.000      0.38145E-02
    80.000      0.41859E-02
    81.000      0.45813E-02
    82.000      0.50011E-02
    83.000      0.54459E-02
    84.000      0.59162E-02
    85.000      0.64127E-02
    86.000      0.69356E-02
    87.000      0.74853E-02
    88.000      0.79268E-02
    89.000      0.83152E-02
    90.000      0.86669E-02
    91.000      0.90262E-02
    92.000      0.93931E-02
    93.000      0.97674E-02
    94.000      0.10149E-01
    95.000      0.10538E-01
    96.000      0.10934E-01
    97.000      0.11338E-01
    98.000      0.11749E-01
    99.000      0.12166E-01
    100.00      0.12591E-01
    101.00      0.13023E-01
    102.00      0.13462E-01
    103.00      0.13907E-01
    104.00      0.14359E-01
    105.00      0.14818E-01
    106.00      0.15267E-01
    107.00      0.15668E-01
    108.00      0.16057E-01
    109.00      0.16433E-01
    110.00      0.16812E-01
    111.00      0.17194E-01
    112.00      0.17579E-01
    113.00      0.17967E-01
    114.00      0.18358E-01
    115.00      0.18752E-01
    116.00      0.19149E-01
    117.00      0.19548E-01
    118.00      0.19950E-01
    119.00      0.20369E-01
    120.00      0.20798E-01
    121.00      0.21427E-01
    122.00      0.22130E-01
    123.00      0.22844E-01
    124.00      0.23569E-01
    125.00      0.24305E-01
    126.00      0.25051E-01
    127.00      0.25807E-01
    128.00      0.26574E-01
    129.00      0.27352E-01
    130.00      0.28139E-01
    131.00      0.28936E-01
    132.00      0.29743E-01
    133.00      0.30560E-01
    134.00      0.31386E-01
    135.00      0.32223E-01
    136.00      0.33068E-01
    137.00      0.33927E-01
    138.00      0.34805E-01
    139.00      0.35692E-01
    140.00      0.36587E-01
    141.00      0.37492E-01
    142.00      0.38406E-01
    143.00      0.39329E-01
    144.00      0.40260E-01
    145.00      0.41200E-01
    146.00      0.42148E-01
    147.00      0.43104E-01
    148.00      0.44069E-01
    149.00      0.45041E-01
    150.00      0.46021E-01
    151.00      0.47009E-01
    152.00      0.48004E-01
    153.00      0.49006E-01
    154.00      0.50016E-01
    155.00      0.51033E-01
    156.00      0.52057E-01
    157.00      0.53087E-01
    158.00      0.54125E-01
    159.00      0.55169E-01
    160.00      0.56219E-01
    161.00      0.57276E-01
    162.00      0.58338E-01
    163.00      0.59407E-01
    164.00      0.60482E-01
    165.00      0.61562E-01
    166.00      0.62726E-01
    167.00      0.64120E-01
    168.00      0.65526E-01
    169.00      0.66947E-01
    170.00      0.68381E-01
    171.00      0.69825E-01
    172.00      0.71280E-01
    173.00      0.72745E-01
    174.00      0.74220E-01
    175.00      0.75705E-01
    176.00      0.77199E-01
    177.00      0.78702E-01
    178.00      0.80214E-01
    179.00      0.81735E-01
    180.00      0.83265E-01
    181.00      0.84803E-01
    182.00      0.86349E-01
    183.00      0.87903E-01
    184.00      0.89465E-01
    185.00      0.91034E-01
    186.00      0.92611E-01
    187.00      0.94195E-01
    188.00      0.95785E-01
    189.00      0.97383E-01
    190.00      0.98987E-01
    191.00      0.10060    
    192.00      0.10225    
    193.00      0.10395    
    194.00      0.10565    
    195.00      0.10748    
    196.00      0.10946    
    197.00      0.11146    
    198.00      0.11347    
    199.00      0.11548    
    200.00      0.11751    
    201.00      0.11954    
    202.00      0.12158    
    203.00      0.12363    
    204.00      0.12569    
    205.00      0.12775    
    206.00      0.12983    
    207.00      0.13190    
    208.00      0.13399    
    209.00      0.13608    
    210.00      0.13818    
    211.00      0.14028    
    212.00      0.14239    
    213.00      0.14450    
    214.00      0.14662    
    215.00      0.14875    
    216.00      0.15088    
    217.00      0.15301    
    218.00      0.15515    
    219.00      0.15729    
    220.00      0.15943    
    221.00      0.16158    
    222.00      0.16373    
    223.00      0.16588    
    224.00      0.16804    
    225.00      0.17020    
    226.00      0.17236    
    227.00      0.17452    
    228.00      0.17669    
    229.00      0.17886    
    230.00      0.18103    
    231.00      0.18320    
    232.00      0.18537    
    233.00      0.18754    
    234.00      0.18971    
    235.00      0.19189    
    236.00      0.19406    
    237.00      0.19623    
    238.00      0.19841    
    239.00      0.20058    
    240.00      0.20282    
    241.00      0.20520    
    242.00      0.20759    
    243.00      0.20997    
    244.00      0.21236    
    245.00      0.21475    
    246.00      0.21713    
    247.00      0.21952    
    248.00      0.22191    
    249.00      0.22430    
    250.00      0.22668    
    251.00      0.22907    
    252.00      0.23145    
    253.00      0.23383    
    254.00      0.23621    
    255.00      0.23858    
    256.00      0.24096    
    257.00      0.24333    
    258.00      0.24570    
    259.00      0.24806    
    260.00      0.25043    
    261.00      0.25279    
    262.00      0.25515    
    263.00      0.25750    
    264.00      0.25986    
    265.00      0.26220    
    266.00      0.26455    
    267.00      0.26689    
    268.00      0.26923    
    269.00      0.27156    
    270.00      0.27389    
    271.00      0.27622    
    272.00      0.27854    
    273.00      0.28085    
    274.00      0.28317    
    275.00      0.28547    
    276.00      0.28778    
    277.00      0.29008    
    278.00      0.29237    
    279.00      0.29466    
    280.00      0.29694    
    281.00      0.29922    
    282.00      0.30149    
    283.00      0.30376    
    284.00      0.30603    
    285.00      0.30828    
    286.00      0.31054    
    287.00      0.31278    
    288.00      0.31502    
    289.00      0.31726    
    290.00      0.31949    
    291.00      0.32179    
    292.00      0.32419    
    293.00      0.32659    
    294.00      0.32899    
    295.00      0.33137    
    296.00      0.33381    
    297.00      0.33627    
    298.00      0.33873    
    299.00      0.34117    
    300.00      0.34361    
    301.00      0.34605    
    302.00      0.34847    
    303.00      0.35089    
    304.00      0.35331    
    305.00      0.35571    
    306.00      0.35811    
    307.00      0.36050    
    308.00      0.36288    
    309.00      0.36525    
    310.00      0.36762    
    311.00      0.36998    
    312.00      0.37233    
    313.00      0.37468    
    314.00      0.37701    
    315.00      0.37934    
    316.00      0.38166    
    317.00      0.38397    
    318.00      0.38628    
    319.00      0.38858    
    320.00      0.39087    
    321.00      0.39315    
    322.00      0.39542    
    323.00      0.39768    
    324.00      0.39994    
    325.00      0.40219    
    326.00      0.40443    
    327.00      0.40666    
    328.00      0.40889    
    329.00      0.41110    
    330.00      0.41331    
    331.00      0.41551    
    332.00      0.41770    
    333.00      0.41989    
    334.00      0.42206    
    335.00      0.42423    
    336.00      0.42639    
    337.00      0.42854    
    338.00      0.43068    
    339.00      0.43281    
    340.00      0.43494    
    341.00      0.43705    
    342.00      0.43916    
    343.00      0.44126    
    344.00      0.44335    
    345.00      0.44544    
    346.00      0.44751    
    347.00      0.44958    
    348.00      0.45164    
    349.00      0.45369    
    350.00      0.45573    
    351.00      0.45776    
    352.00      0.45979    
    353.00      0.46185    
    354.00      0.46392    
    355.00      0.46598    
    356.00      0.46804    
    357.00      0.47008    
    358.00      0.47212    
    359.00      0.47420    
    360.00      0.47627    
    361.00      0.47833    
    362.00      0.48038    
    363.00      0.48242    
    364.00      0.48446    
    365.00      0.48649    
    366.00      0.48850    
    367.00      0.49051    
    368.00      0.49251    
    369.00      0.49451    
    370.00      0.49649    
    371.00      0.49846    
    372.00      0.50043    
    373.00      0.50238    
    374.00      0.50433    
    375.00      0.50627    
    376.00      0.50820    
    377.00      0.51012    
    378.00      0.51204    
    379.00      0.51394    
    380.00      0.51584    
    381.00      0.51772    
    382.00      0.51960    
    383.00      0.52147    
    384.00      0.52334    
    385.00      0.52519    
    386.00      0.52704    
    387.00      0.52887    
    388.00      0.53070    
    389.00      0.53252    
    390.00      0.53433    
    391.00      0.53614    
    392.00      0.53793    
    393.00      0.53972    
    394.00      0.54150    
    395.00      0.54327    
    396.00      0.54503    
    397.00      0.54679    
    398.00      0.54853    
    399.00      0.55027    
    400.00      0.55200    
    401.00      0.55372    
    402.00      0.55544    
    403.00      0.55715    
    404.00      0.55884    
    405.00      0.56053    
    406.00      0.56222    
    407.00      0.56389    
    408.00      0.56556    
    409.00      0.56722    
    410.00      0.56887    
    411.00      0.57052    
    412.00      0.57215    
    413.00      0.57378    
    414.00      0.57546    
    415.00      0.57724    
    416.00      0.57900    
    417.00      0.58076    
    418.00      0.58251    
    419.00      0.58425    
    420.00      0.58598    
    421.00      0.58771    
    422.00      0.58944    
    423.00      0.59116    
    424.00      0.59286    
    425.00      0.59457    
    426.00      0.59626    
    427.00      0.59794    
    428.00      0.59962    
    429.00      0.60128    
    430.00      0.60294    
    431.00      0.60459    
    432.00      0.60624    
    433.00      0.60787    
    434.00      0.60950    
    435.00      0.61111    
    436.00      0.61272    
    437.00      0.61433    
    438.00      0.61592    
    439.00      0.61750    
    440.00      0.61908    
    441.00      0.62065    
    442.00      0.62221    
    443.00      0.62377    
    444.00      0.62531    
    445.00      0.62685    
    446.00      0.62838    
    447.00      0.62990    
    448.00      0.63142    
    449.00      0.63291    
    450.00      0.63438    
    451.00      0.63585    
    452.00      0.63731    
    453.00      0.63876    
    454.00      0.64020    
    455.00      0.64164    
    456.00      0.64299    
    457.00      0.64426    
    458.00      0.64553    
    459.00      0.64679    
    460.00      0.64804    
    461.00      0.64929    
    462.00      0.65054    
    463.00      0.65177    
    464.00      0.65301    
    465.00      0.65423    
    466.00      0.65545    
    467.00      0.65667    
    468.00      0.65788    
    469.00      0.65908    
    470.00      0.66028    
    471.00      0.66147    
    472.00      0.66265    
    473.00      0.66384    
    474.00      0.66501    
    475.00      0.66618    
    476.00      0.66735    
    477.00      0.66850    
    478.00      0.66966    
    479.00      0.67080    
    480.00      0.67194    
    481.00      0.67307    
    482.00      0.67420    
    483.00      0.67532    
    484.00      0.67644    
    485.00      0.67755    
    486.00      0.67863    
    487.00      0.67967    
    488.00      0.68071    
    489.00      0.68174    
    490.00      0.68276    
    491.00      0.68379    
    492.00      0.68480    
    493.00      0.68582    
    494.00      0.68682    
    495.00      0.68783    
    496.00      0.68883    
    497.00      0.68982    
    498.00      0.69081    
    499.00      0.69180    
    500.00      0.69278     
    501.00      0.69376    
    502.00      0.69473    
    503.00      0.69570    
    504.00      0.69666    
    505.00      0.69762    
    506.00      0.69858    
    507.00      0.69953    
    508.00      0.70048    
    509.00      0.70142    
    510.00      0.70236    
    511.00      0.70329    
    512.00      0.70423    
    513.00      0.44289E-01
    514.00      0.44888E-01
    515.00      0.45490E-01
    516.00      0.46097E-01
    517.00      0.46709E-01
    518.00      0.47324E-01
    519.00      0.47944E-01
    520.00      0.48568E-01
    521.00      0.49197E-01
    522.00      0.49829E-01
    523.00      0.50466E-01
    524.00      0.51107E-01
    525.00      0.51752E-01
    526.00      0.52401E-01
    527.00      0.53054E-01
    528.00      0.53711E-01
    529.00      0.54372E-01
    530.00      0.55037E-01
    531.00      0.55706E-01
    532.00      0.56379E-01
    533.00      0.57057E-01
    534.00      0.57738E-01
    535.00      0.58423E-01
    536.00      0.59113E-01
    537.00      0.59806E-01
    538.00      0.60503E-01
    539.00      0.61204E-01
    540.00      0.61909E-01
    541.00      0.62618E-01
    542.00      0.63330E-01
    543.00      0.64047E-01
    544.00      0.64767E-01
    545.00      0.65492E-01
    546.00      0.66220E-01
    547.00      0.66951E-01
    548.00      0.67687E-01
    549.00      0.68426E-01
    550.00      0.69169E-01
    551.00      0.69915E-01
    552.00      0.70666E-01
    553.00      0.71439E-01
    554.00      0.72219E-01
    555.00      0.73003E-01
    556.00      0.73791E-01
    557.00      0.74582E-01
    558.00      0.75377E-01
    559.00      0.76176E-01
    560.00      0.76979E-01
    561.00      0.77786E-01
    562.00      0.78562E-01
    563.00      0.79340E-01
    564.00      0.80122E-01
    565.00      0.80906E-01
    566.00      0.81694E-01
    567.00      0.82484E-01
    568.00      0.83278E-01
    569.00      0.84075E-01
    570.00      0.84876E-01
    571.00      0.85387E-01
    572.00      0.85853E-01
    573.00      0.86319E-01
    574.00      0.86786E-01
    575.00      0.87253E-01
    576.00      0.87722E-01
    577.00      0.88191E-01
    578.00      0.88660E-01
    579.00      0.89130E-01
    580.00      0.89543E-01
    581.00      0.89924E-01
    582.00      0.90305E-01
    583.00      0.90686E-01
    584.00      0.91068E-01
    585.00      0.91450E-01
    586.00      0.91832E-01
    587.00      0.92214E-01
    588.00      0.92597E-01
    589.00      0.92964E-01
    590.00      0.93289E-01
    591.00      0.93613E-01
    592.00      0.93938E-01
    593.00      0.94263E-01
    594.00      0.94588E-01
    595.00      0.94913E-01
    596.00      0.95239E-01
    597.00      0.95564E-01
    598.00      0.95889E-01
    599.00      0.96215E-01
    600.00      0.96540E-01
    601.00      0.96866E-01
    602.00      0.97191E-01
    603.00      0.97517E-01
    604.00      0.97842E-01
    605.00      0.98168E-01
    606.00      0.98494E-01
    607.00      0.98820E-01
    608.00      0.99146E-01
    609.00      0.99472E-01
    610.00      0.99798E-01
    611.00      0.10012    
    612.00      0.10045    
    613.00      0.10078    
    614.00      0.10110    
    615.00      0.10143    
    616.00      0.10176    
    617.00      0.10208    
    618.00      0.10241    
    619.00      0.10275    
    620.00      0.10309    
    621.00      0.10343    
    622.00      0.10377    
    623.00      0.10411    
    624.00      0.10445    
    625.00      0.10479    
    626.00      0.10513    
    627.00      0.10547    
    628.00      0.10585    
    629.00      0.10636    
    630.00      0.10686    
    631.00      0.10736    
    632.00      0.10786    
    633.00      0.10837    
    634.00      0.10887    
    635.00      0.10938    
    636.00      0.10988    
    637.00      0.11039    
    638.00      0.11092    
    639.00      0.11167    
    640.00      0.11242    
    641.00      0.11317    
    642.00      0.11392    
    643.00      0.11468    
    644.00      0.11543    
    645.00      0.11619    
    646.00      0.11695    
    647.00      0.11771    
    648.00      0.11847    
    649.00      0.11936    
    650.00      0.12029    
    651.00      0.12122    
    652.00      0.12216    
    653.00      0.12309    
    654.00      0.12403    
    655.00      0.12497    
    656.00      0.12591    
    657.00      0.12686    
    658.00      0.12781    
    659.00      0.12876    
    660.00      0.12971    
    661.00      0.13066    
    662.00      0.13162    
    663.00      0.13257    
    664.00      0.13353    
    665.00      0.13450    
    666.00      0.13546    
    667.00      0.13643    
    668.00      0.13739    
    669.00      0.13836    
    670.00      0.13930    
    671.00      0.14022    
    672.00      0.14113    
    673.00      0.14205    
    674.00      0.14297    
    675.00      0.14390    
    676.00      0.14482    
    677.00      0.14575    
    678.00      0.14667    
    679.00      0.14760    
    680.00      0.14853    
    681.00      0.14943    
    682.00      0.15032    
    683.00      0.15120    
    684.00      0.15209    
    685.00      0.15299    
    686.00      0.15388    
    687.00      0.15477    
    688.00      0.15566    
    689.00      0.15656    
    690.00      0.15746    
    691.00      0.15835    
    692.00      0.15924    
    693.00      0.16013    
    694.00      0.16102    
    695.00      0.16191    
    696.00      0.16280    
    697.00      0.16370    
    698.00      0.16459    
    699.00      0.16548    
    700.00      0.16638    
    701.00      0.16728    
    702.00      0.16817    
    703.00      0.16910    
    704.00      0.17004    
    705.00      0.17098    
    706.00      0.17192    
    707.00      0.17287    
    708.00      0.17381    
    709.00      0.17476    
    710.00      0.17570    
    711.00      0.17665    
    712.00      0.17760    
    713.00      0.17855    
    714.00      0.17950    
    715.00      0.18048    
    716.00      0.18147    
    717.00      0.18245    
    718.00      0.18343    
    719.00      0.18441    
    720.00      0.18540    
    721.00      0.18638    
    722.00      0.18737    
    723.00      0.18836    
    724.00      0.18934    
    725.00      0.19033    
    726.00      0.19132    
    727.00      0.19231    
    728.00      0.19330    
    729.00      0.19429    
    730.00      0.19528    
    731.00      0.19628    
    732.00      0.19727    
    733.00      0.19826    
    734.00      0.19926    
    735.00      0.20025    
    736.00      0.20125    
    737.00      0.20224    
    738.00      0.20324    
    739.00      0.20424    
    740.00      0.20523    
    741.00      0.20623    
    742.00      0.20723    
    743.00      0.20823    
    744.00      0.20923    
    745.00      0.21023    
    746.00      0.21123    
    747.00      0.21223    
    748.00      0.21323    
    749.00      0.21423    
    750.00      0.21523    
    751.00      0.21624    
    752.00      0.21724    
    753.00      0.21824    
    754.00      0.21924    
    755.00      0.22025    
    756.00      0.22125    
    757.00      0.22225    
    758.00      0.22326    
    759.00      0.22426    
    760.00      0.22527    
    761.00      0.22627    
    762.00      0.22728    
    763.00      0.22828    
    764.00      0.22929    
    765.00      0.23030    
    766.00      0.23130    
    767.00      0.23231    
    768.00      0.23332    
    769.00      0.23432    
    770.00      0.23533    
    771.00      0.23634    
    772.00      0.23735    
    773.00      0.23835    
    774.00      0.23937    
    775.00      0.24039    
    776.00      0.24141    
    777.00      0.24243    
    778.00      0.24345    
    779.00      0.24447    
    780.00      0.24550    
    781.00      0.24652    
    782.00      0.24754    
    783.00      0.24856    
    784.00      0.24958    
    785.00      0.25060    
    786.00      0.25162    
    787.00      0.25265    
    788.00      0.25368    
    789.00      0.25471    
    790.00      0.25575    
    791.00      0.25678    
    792.00      0.25781    
    793.00      0.25884    
    794.00      0.25987    
    795.00      0.26090    
    796.00      0.26193    
    797.00      0.26296    
    798.00      0.26399    
    799.00      0.26501    
    800.00      0.26604    
    801.00      0.26707    
    802.00      0.26810    
    803.00      0.26913    
    804.00      0.27015    
    805.00      0.27118    
    806.00      0.27220    
    807.00      0.27323    
    808.00      0.27426    
    809.00      0.27528    
    810.00      0.27631    
    811.00      0.27733    
    812.00      0.27835    
    813.00      0.27938    
    814.00      0.28040    
    815.00      0.28142    
    816.00      0.28244    
    817.00      0.28346    
    818.00      0.28448    
    819.00      0.28550    
    820.00      0.28652    
    821.00      0.28754    
    822.00      0.28856    
    823.00      0.28958    
    824.00      0.29059    
    825.00      0.29161    
    826.00      0.29263    
    827.00      0.29364    
    828.00      0.29465    
    829.00      0.29567    
    830.00      0.29668    
    831.00      0.29769    
    832.00      0.29871    
    833.00      0.29972    
    834.00      0.30073    
    835.00      0.30174    
    836.00      0.30275    
    837.00      0.30376    
    838.00      0.30477    
    839.00      0.30578    
    840.00      0.30679    
    841.00      0.30780    
    842.00      0.30881    
    843.00      0.30982    
    844.00      0.31082    
    845.00      0.31183    
    846.00      0.31284    
    847.00      0.31384    
    848.00      0.31485    
    849.00      0.31585    
    850.00      0.31686    
    851.00      0.31786    
    852.00      0.31886    
    853.00      0.31987    
    854.00      0.32087    
    855.00      0.32187    
    856.00      0.32288    
    857.00      0.32388    
    858.00      0.32488    
    859.00      0.32588    
    860.00      0.32688    
    861.00      0.32788    
    862.00      0.32887    
    863.00      0.32987    
    864.00      0.33087    
    865.00      0.33186    
    866.00      0.33286    
    867.00      0.33385    
    868.00      0.33485    
    869.00      0.33584    
    870.00      0.33684    
    871.00      0.33783    
    872.00      0.33882    
    873.00      0.33981    
    874.00      0.34080    
    875.00      0.34179    
    876.00      0.34278    
    877.00      0.34377    
    878.00      0.34475    
    879.00      0.34574    
    880.00      0.34672    
    881.00      0.34770    
    882.00      0.34869    
    883.00      0.34967    
    884.00      0.35065    
    885.00      0.35163    
    886.00      0.35261    
    887.00      0.35359    
    888.00      0.35456    
    889.00      0.35554    
    890.00      0.35651    
    891.00      0.35749    
    892.00      0.35846    
    893.00      0.35943    
    894.00      0.36040    
    895.00      0.36137    
    896.00      0.36234    
    897.00      0.36331    
    898.00      0.36427    
    899.00      0.36524    
    900.00      0.36620    
    901.00      0.36716    
    902.00      0.36813    
    903.00      0.36909    
    904.00      0.37005    
    905.00      0.37101    
    906.00      0.37196    
    907.00      0.37292    
    908.00      0.37388    
    909.00      0.37483    
    910.00      0.37578    
    911.00      0.37674    
    912.00      0.37769    
    913.00      0.37864    
    914.00      0.37959    
    915.00      0.38054    
    916.00      0.38148    
    917.00      0.38243    
    918.00      0.38337    
    919.00      0.38432    
    920.00      0.38526    
    921.00      0.38620    
    922.00      0.38714    
    923.00      0.38808    
    924.00      0.38904    
    925.00      0.38999    
    926.00      0.39095    
    927.00      0.39190    
    928.00      0.39285    
    929.00      0.39380    
    930.00      0.39475    
    931.00      0.39569    
    932.00      0.39664    
    933.00      0.39758    
    934.00      0.39853    
    935.00      0.39947    
    936.00      0.40041    
    937.00      0.40135    
    938.00      0.40229    
    939.00      0.40323    
    940.00      0.40417    
    941.00      0.40511    
    942.00      0.40605    
    943.00      0.40699    
    944.00      0.40793    
    945.00      0.40886    
    946.00      0.40979    
    947.00      0.41073    
    948.00      0.41166    
    949.00      0.41259    
    950.00      0.41351    
    951.00      0.41444    
    952.00      0.41537    
    953.00      0.41629    
    954.00      0.41722    
    955.00      0.41815    
    956.00      0.41907    
    957.00      0.41999    
    958.00      0.42092    
    959.00      0.42184    
    960.00      0.42276    
    961.00      0.42367    
    962.00      0.42459    
    963.00      0.42551    
    964.00      0.42642    
    965.00      0.42733    
    966.00      0.42825    
    967.00      0.42916    
    968.00      0.43007    
    969.00      0.43097    
    970.00      0.43188    
    971.00      0.43279    
    972.00      0.43369    
    973.00      0.43459    
    974.00      0.43550    
    975.00      0.43640    
    976.00      0.43729    
    977.00      0.43819    
    978.00      0.43909    
    979.00      0.43998    
    980.00      0.44088    
    981.00      0.44177    
    982.00      0.44266    
    983.00      0.44355    
    984.00      0.44444    
    985.00      0.44533    
    986.00      0.44621    
    987.00      0.44710    
    988.00      0.44798    
    989.00      0.44886    
    990.00      0.44974    
    991.00      0.45062    
    992.00      0.45150    
    993.00      0.45238    
    994.00      0.45325    
    995.00      0.45412    
    996.00      0.45500    
    997.00      0.45587    
    998.00      0.45674    
    999.00      0.45761    
    1000.0      0.45847    
    1001.0      0.45934    
    1002.0      0.46020    
    1003.0      0.46107    
    1004.0      0.46193    
    1005.0      0.46279    
    1006.0      0.46365    
    1007.0      0.46451    
    1008.0      0.46536    
    1009.0      0.46622    
    1010.0      0.46707    
    1011.0      0.46793    
    1012.0      0.46878    
    1013.0      0.46963    
    1014.0      0.47048    
    1015.0      0.47132    
    1016.0      0.47217    
    1017.0      0.47301    
    1018.0      0.47386    
    1019.0      0.47470    
    1020.0      0.47554    
    1021.0      0.47638    
    1022.0      0.47722    
    1023.0      0.47806    
    1024.0      0.47889    
    1025.0      0.47972    
    1026.0      0.48056    
    1027.0      0.48139    
    1028.0      0.48222    
    1029.0      0.48305    
    1030.0      0.48387    
    1031.0      0.48470    
    1032.0      0.48553    
    1033.0      0.48635    
    1034.0      0.48718    
    1035.0      0.48801    
    1036.0      0.48884    
    1037.0      0.48967    
    1038.0      0.49049    
    1039.0      0.49131    
    1040.0      0.49214    
    1041.0      0.49296    
    1042.0      0.49378    
    1043.0      0.49459    
    1044.0      0.49541    
    1045.0      0.49622    
    1046.0      0.49704    
    1047.0      0.49785    
    1048.0      0.49866    
    1049.0      0.49947    
    1050.0      0.50029    
    1051.0      0.50110    
    1052.0      0.50192    
    1053.0      0.50273    
    1054.0      0.50354    
    1055.0      0.50435    
    1056.0      0.50516    
    1057.0      0.50597    
    1058.0      0.50677    
    1059.0      0.50758    
    1060.0      0.50838    
    1061.0      0.50918    
    1062.0      0.50998    
    1063.0      0.51078    
    1064.0      0.51158    
    1065.0      0.51238    
    1066.0      0.51317    
    1067.0      0.51396    
    1068.0      0.51476    
    1069.0      0.51555    
    1070.0      0.51634    
    1071.0      0.51713    
    1072.0      0.51791    
    1073.0      0.51870    
    1074.0      0.51948    
    1075.0      0.52027    
    1076.0      0.52105    
    1077.0      0.52183    
    1078.0      0.52261    
    1079.0      0.52338    
    1080.0      0.52416    
    1081.0      0.52493    
    1082.0      0.52571    
    1083.0      0.52648    
    1084.0      0.52725    
    1085.0      0.52802    
    1086.0      0.52879    
    1087.0      0.52956    
    1088.0      0.53032    
    1089.0      0.53108    
    1090.0      0.53185    
    1091.0      0.53261    
    1092.0      0.53337    
    1093.0      0.53413    
    1094.0      0.53488    
    1095.0      0.53564    
    1096.0      0.53640    
    1097.0      0.53715    
    1098.0      0.53790    
    1099.0      0.53865    
    1100.0      0.53940    
    1101.0      0.54015    
    1102.0      0.54090    
    1103.0      0.54164    
    1104.0      0.54239    
    1105.0      0.54313    
    1106.0      0.54387    
    1107.0      0.54461    
    1108.0      0.54535    
    1109.0      0.54609    
    1110.0      0.54682    
    1111.0      0.54756    
    1112.0      0.54829    
    1113.0      0.54902    
    1114.0      0.54975    
    1115.0      0.55048    
    1116.0      0.55121    
    1117.0      0.55194    
    1118.0      0.55267    
    1119.0      0.55339    
    1120.0      0.55411    
    1121.0      0.55483    
    1122.0      0.55556    
    1123.0      0.55627    
    1124.0      0.55699    
    1125.0      0.55771    
    1126.0      0.55842    
    1127.0      0.55914    
    1128.0      0.55985    
    1129.0      0.56056    
    1130.0      0.56127    
    1131.0      0.56198    
    1132.0      0.56269    
    1133.0      0.56340    
    1134.0      0.56410    
    1135.0      0.56480    
    1136.0      0.56551    
    1137.0      0.56621    
    1138.0      0.56691    
    1139.0      0.56761    
    1140.0      0.56830    
    1141.0      0.56900    
    1142.0      0.56969    
    1143.0      0.57039    
    1144.0      0.57108    
    1145.0      0.57177    
    1146.0      0.57246    
    1147.0      0.57315    
    1148.0      0.57384    
    1149.0      0.57452    
    1150.0      0.57521    
    1151.0      0.57589    
    1152.0      0.57657    
    1153.0      0.57725    
    1154.0      0.57793    
    1155.0      0.57861    
    1156.0      0.57929    
    1157.0      0.57996    
    1158.0      0.58064    
    1159.0      0.58131    
    1160.0      0.58199    
    1161.0      0.58266    
    1162.0      0.58333    
    1163.0      0.58400    
    1164.0      0.58466    
    1165.0      0.58533    
    1166.0      0.58599    
    1167.0      0.58666    
    1168.0      0.58732    
    1169.0      0.58798    
    1170.0      0.58864    
    1171.0      0.58930    
    1172.0      0.58996    
    1173.0      0.59062    
    1174.0      0.59127    
    1175.0      0.59193    
    1176.0      0.59258    
    1177.0      0.59323    
    1178.0      0.59388    
    1179.0      0.59453    
    1180.0      0.59518    
    1181.0      0.59582    
    1182.0      0.59647    
    1183.0      0.59711    
    1184.0      0.59776    
    1185.0      0.59840    
    1186.0      0.59904    
    1187.0      0.59968    
    1188.0      0.60032    
    1189.0      0.60095    
    1190.0      0.60159    
    1191.0      0.60223    
    1192.0      0.60286    
    1193.0      0.60349    
    1194.0      0.60412    
    1195.0      0.60475    
    1196.0      0.60538    
    1197.0      0.60601    
    1198.0      0.60664    
    1199.0      0.60726    
    1200.0      0.60789    
    1201.0      0.60851    
    1202.0      0.60913    
    1203.0      0.60975    
    1204.0      0.61037    
    1205.0      0.61099    
    1206.0      0.61161    
    1207.0      0.61222    
    1208.0      0.61284    
    1209.0      0.61345    
    1210.0      0.61407    
    1211.0      0.61468    
    1212.0      0.61529    
    1213.0      0.61590    
    1214.0      0.61650    
    1215.0      0.61711    
    1216.0      0.61772    
    1217.0      0.61832    
    1218.0      0.61893    
    1219.0      0.61953    
    1220.0      0.62013    
    1221.0      0.62073    
    1222.0      0.62133    
    1223.0      0.62193    
    1224.0      0.62252    
    1225.0      0.62312    
    1226.0      0.62372    
    1227.0      0.62431    
    1228.0      0.62490    
    1229.0      0.62549    
    1230.0      0.62608    
    1231.0      0.62667    
    1232.0      0.62726    
    1233.0      0.62785    
    1234.0      0.62844    
    1235.0      0.62903    
    1236.0      0.62962    
    1237.0      0.63020    
    1238.0      0.63079    
    1239.0      0.63137    
    1240.0      0.63195    
    1241.0      0.63253    
    1242.0      0.63311    
    1243.0      0.63369    
    1244.0      0.63427    
    1245.0      0.63485    
    1246.0      0.63542    
    1247.0      0.63600    
    1248.0      0.63657    
    1249.0      0.63714    
    1250.0      0.63772    
    1251.0      0.63829    
    1252.0      0.63886    
    1253.0      0.63943    
    1254.0      0.64000    
    1255.0      0.64057    
    1256.0      0.64114    
    1257.0      0.64170    
    1258.0      0.64227    
    1259.0      0.64283    
    1260.0      0.64340    
    1261.0      0.64396    
    1262.0      0.64452    
    1263.0      0.64508    
    1264.0      0.64564    
    1265.0      0.64620    
    1266.0      0.64676    
    1267.0      0.64732    
    1268.0      0.64787    
    1269.0      0.64842    
    1270.0      0.64898    
    1271.0      0.64953    
    1272.0      0.65008    
    1273.0      0.65064    
    1274.0      0.65119    
    1275.0      0.65174    
    1276.0      0.65229    
    1277.0      0.65284    
    1278.0      0.65339    
    1279.0      0.65394    
    1280.0      0.65449    
    1281.0      0.65503    
    1282.0      0.65558    
    1283.0      0.65612    
    1284.0      0.65666    
    1285.0      0.65720    
    1286.0      0.65774    
    1287.0      0.65828    
    1288.0      0.65882    
    1289.0      0.65936    
    1290.0      0.65990    
    1291.0      0.66043    
    1292.0      0.66097    
    1293.0      0.66150    
    1294.0      0.66203    
    1295.0      0.66256    
    1296.0      0.66309    
    1297.0      0.66362    
    1298.0      0.66415    
    1299.0      0.66468    
    1300.0      0.66521    
    1301.0      0.66573    
    1302.0      0.66626    
    1303.0      0.66678    
    1304.0      0.66730    
    1305.0      0.66782    
    1306.0      0.66834    
    1307.0      0.66886    
    1308.0      0.66938    
    1309.0      0.66990    
    1310.0      0.67042    
    1311.0      0.67093    
    1312.0      0.67145    
    1313.0      0.67196    
    1314.0      0.67247    
    1315.0      0.67298    
    1316.0      0.67349    
    1317.0      0.67400    
    1318.0      0.67451    
    1319.0      0.67502    
    1320.0      0.67553    
    1321.0      0.67603    
    1322.0      0.67654    
    1323.0      0.67704    
    1324.0      0.67754    
    1325.0      0.67804    
    1326.0      0.67855    
    1327.0      0.67904    
    1328.0      0.67954    
    1329.0      0.68004    
    1330.0      0.68054    
    1331.0      0.68103    
    1332.0      0.68153    
    1333.0      0.68202    
    1334.0      0.68252    
    1335.0      0.68301    
    1336.0      0.68350    
    1337.0      0.68399    
    1338.0      0.68448    
    1339.0      0.68497    
    1340.0      0.68546    
    1341.0      0.68594    
    1342.0      0.68643    
    1343.0      0.68691    
    1344.0      0.68740    
    1345.0      0.68788    
    1346.0      0.68836    
    1347.0      0.68884    
    1348.0      0.68933    
    1349.0      0.68980    
    1350.0      0.69028    
    1351.0      0.69076    
    1352.0      0.69124    
    1353.0      0.69171    
    1354.0      0.69219    
    1355.0      0.69266    
    1356.0      0.69313    
    1357.0      0.69361    
    1358.0      0.69408    
    1359.0      0.69455    
    1360.0      0.69502    
    1361.0      0.69548    
    1362.0      0.69595    
    1363.0      0.69642    
    1364.0      0.69688    
    1365.0      0.69735    
    1366.0      0.69781    
    1367.0      0.69828    
    1368.0      0.69874    
    1369.0      0.69920    
    1370.0      0.69966    
    1371.0      0.70012    
    1372.0      0.70058    
    1373.0      0.70103    
    1374.0      0.70149    
    1375.0      0.70195    
    1376.0      0.70240    
    1377.0      0.70286    
    1378.0      0.70331    
    1379.0      0.70376    
    1380.0      0.70421    
    1381.0      0.70466    
    1382.0      0.70511    
    1383.0      0.70556    
    1384.0      0.70601    
    1385.0      0.70646    
    1386.0      0.70691    
    1387.0      0.70735    
    1388.0      0.70780    
    1389.0      0.70824    
    1390.0      0.70868    
    1391.0      0.70913    
    1392.0      0.70957    
    1393.0      0.71001    
    1394.0      0.71045    
    1395.0      0.71089    
    1396.0      0.71132    
    1397.0      0.71176    
    1398.0      0.71220    
    1399.0      0.71263    
    1400.0      0.71307    
    1401.0      0.71350    
    1402.0      0.71393    
    1403.0      0.71437    
    1404.0      0.71480    
    1405.0      0.71523    
    1406.0      0.71566    
    1407.0      0.71609    
    1408.0      0.71652    
    1409.0      0.71694    
    1410.0      0.71737    
    1411.0      0.71780    
    1412.0      0.71822    
    1413.0      0.71865    
    1414.0      0.71907    
    1415.0      0.71949    
    1416.0      0.71991    
    1417.0      0.72033    
    1418.0      0.72075    
    1419.0      0.72117    
    1420.0      0.72159    
    1421.0      0.72201    
    1422.0      0.72243    
    1423.0      0.72284    
    1424.0      0.72326    
    1425.0      0.72367    
    1426.0      0.72409    
    1427.0      0.72450    
    1428.0      0.72491    
    1429.0      0.72532    
    1430.0      0.72573    
    1431.0      0.72614    
    1432.0      0.72655    
    1433.0      0.72696    
    1434.0      0.72737    
    1435.0      0.72777    
    1436.0      0.72818    
    1437.0      0.72858    
    1438.0      0.72899    
    1439.0      0.72939    
    1440.0      0.72979    
    1441.0      0.73020    
    1442.0      0.73060    
    1443.0      0.73100    
    1444.0      0.73140    
    1445.0      0.73180    
    1446.0      0.73220    
    1447.0      0.73259    
    1448.0      0.73299    
    1449.0      0.73339    
    1450.0      0.73379    
    1451.0      0.73418    
    1452.0      0.73458    
    1453.0      0.73497    
    1454.0      0.73536    
    1455.0      0.73576    
    1456.0      0.73615    
    1457.0      0.73654    
    1458.0      0.73693    
    1459.0      0.73732    
    1460.0      0.73771    
    1461.0      0.73810    
    1462.0      0.73848    
    1463.0      0.73887    
    1464.0      0.73926    
    1465.0      0.73964    
    1466.0      0.74003    
    1467.0      0.74041    
    1468.0      0.74079    
    1469.0      0.74117    
    1470.0      0.74156    
    1471.0      0.74194    
    1472.0      0.74232    
    1473.0      0.74270    
    1474.0      0.74309    
    1475.0      0.74347    
    1476.0      0.74384    
    1477.0      0.74422    
    1478.0      0.74460    
    1479.0      0.74498    
    1480.0      0.74535    
    1481.0      0.74573    
    1482.0      0.74611    
    1483.0      0.74648    
    1484.0      0.74685    
    1485.0      0.74723    
    1486.0      0.74760    
    1487.0      0.74797    
    1488.0      0.74834    
    1489.0      0.74871    
    1490.0      0.74908    
    1491.0      0.74945    
    1492.0      0.74982    
    1493.0      0.75018    
    1494.0      0.75056    
    1495.0      0.75093    
    1496.0      0.75130    
    1497.0      0.75167    
    1498.0      0.75204    
    1499.0      0.75241    
    1500.0      0.75278    
    1501.0      0.75315    
    1502.0      0.75352    
    1503.0      0.75388    
    1504.0      0.75425    
    1505.0      0.75461    
    1506.0      0.75498    
    1507.0      0.75534    
    1508.0      0.75571    
    1509.0      0.75607    
    1510.0      0.75643    
    1511.0      0.75679    
    1512.0      0.75715    
    1513.0      0.75751    
    1514.0      0.75787    
    1515.0      0.75823    
    1516.0      0.75859    
    1517.0      0.75895    
    1518.0      0.75930    
    1519.0      0.75966    
    1520.0      0.76001    
    1521.0      0.76037    
    1522.0      0.76072    
    1523.0      0.76108    
    1524.0      0.76143    
    1525.0      0.76178    
    1526.0      0.76214    
    1527.0      0.76249    
    1528.0      0.76284    
    1529.0      0.76319    
    1530.0      0.76354    
    1531.0      0.76389    
    1532.0      0.76423    
    1533.0      0.76458    
    1534.0      0.76493    
    1535.0      0.76527    
    1536.0      0.76562    
    1537.0      0.76596    
    1538.0      0.76631    
    1539.0      0.76665    
    1540.0      0.76699    
    1541.0      0.76733    
    1542.0      0.76768    
    1543.0      0.76802    
    1544.0      0.76836    
    1545.0      0.76870    
    1546.0      0.76903    
    1547.0      0.76937    
    1548.0      0.76971    
    1549.0      0.77005    
    1550.0      0.77038    
    1551.0      0.77072    
    1552.0      0.77105    
    1553.0      0.77139    
    1554.0      0.77172    
    1555.0      0.77205    
    1556.0      0.77239    
    1557.0      0.77272    
    1558.0      0.77305    
    1559.0      0.77338    
    1560.0      0.77371    
    1561.0      0.77404    
    1562.0      0.77437    
    1563.0      0.77470    
    1564.0      0.77502    
    1565.0      0.77535    
    1566.0      0.77568    
    1567.0      0.77600    
    1568.0      0.77633    
    1569.0      0.77665    
    1570.0      0.77698    
    1571.0      0.77730    
    1572.0      0.77762    
    1573.0      0.77795    
    1574.0      0.77827    
    1575.0      0.77859    
    1576.0      0.77891    
    1577.0      0.77923    
    1578.0      0.77955    
    1579.0      0.77987    
    1580.0      0.78018    
    1581.0      0.78050    
    1582.0      0.78082    
    1583.0      0.78114    
    1584.0      0.78145    
    1585.0      0.78177    
    1586.0      0.78208    
    1587.0      0.78239    
    1588.0      0.78271    
    1589.0      0.78302    
    1590.0      0.78333    
    1591.0      0.78364    
    1592.0      0.78396    
    1593.0      0.78427    
    1594.0      0.78458    
    1595.0      0.78489    
    1596.0      0.78519    
    1597.0      0.78550    
    1598.0      0.78581    
    1599.0      0.78612    
    1600.0      0.78642    
    1601.0      0.78673    
    1602.0      0.78703    
    1603.0      0.78734    
    1604.0      0.78764    
    1605.0      0.78795    
    1606.0      0.78825    
    1607.0      0.78855    
    1608.0      0.78885    
    1609.0      0.78916    
    1610.0      0.78946    
    1611.0      0.78976    
    1612.0      0.79006    
    1613.0      0.79036    
    1614.0      0.79065    
    1615.0      0.79095    
    1616.0      0.79125    
    1617.0      0.79155    
    1618.0      0.79184    
    1619.0      0.79214    
    1620.0      0.79243    
    1621.0      0.79273    
    1622.0      0.79302    
    1623.0      0.79332    
    1624.0      0.79361    
    1625.0      0.79390    
    1626.0      0.79419    
    1627.0      0.79449    
    1628.0      0.79478    
    1629.0      0.79507    
    1630.0      0.79536    
    1631.0      0.79565    
    1632.0      0.79593    
    1633.0      0.79622    
    1634.0      0.79651    
    1635.0      0.79680    
    1636.0      0.79708    
    1637.0      0.79737    
    1638.0      0.79766    
    1639.0      0.79794    
    1640.0      0.79823    
    1641.0      0.79851    
    1642.0      0.79879    
    1643.0      0.79908    
    1644.0      0.79936    
    1645.0      0.79964    
    1646.0      0.79992    
    1647.0      0.80020    
    1648.0      0.80048    
    1649.0      0.80076    
    1650.0      0.80104    
    1651.0      0.80132    
    1652.0      0.80160    
    1653.0      0.80188    
    1654.0      0.80216    
    1655.0      0.80243    
    1656.0      0.80271    
    1657.0      0.80298    
    1658.0      0.80326    
    1659.0      0.80354    
    1660.0      0.80381    
    1661.0      0.80408    
    1662.0      0.80436    
    1663.0      0.80463    
    1664.0      0.80490    
    1665.0      0.80517    
    1666.0      0.80545    
    1667.0      0.80572    
    1668.0      0.80599    
    1669.0      0.80626    
    1670.0      0.80653    
    1671.0      0.80680    
    1672.0      0.80706    
    1673.0      0.80733    
    1674.0      0.80760    
    1675.0      0.80787    
    1676.0      0.80813    
    1677.0      0.80840    
    1678.0      0.80866    
    1679.0      0.80893    
    1680.0      0.80919    
    1681.0      0.80946    
    1682.0      0.80972    
    1683.0      0.80999    
    1684.0      0.81025    
    1685.0      0.81051    
    1686.0      0.81077    
    1687.0      0.81103    
    1688.0      0.81129    
    1689.0      0.81155    
    1690.0      0.81181    
    1691.0      0.81207    
    1692.0      0.81233    
    1693.0      0.81259    
    1694.0      0.81285    
    1695.0      0.81311    
    1696.0      0.81336    
    1697.0      0.81362    
    1698.0      0.81388    
    1699.0      0.81413    
    1700.0      0.81439    
    1701.0      0.81464    
    1702.0      0.81490    
    1703.0      0.81515    
    1704.0      0.81540    
    1705.0      0.81566    
    1706.0      0.81591    
    1707.0      0.81616    
    1708.0      0.81641    
    1709.0      0.81666    
    1710.0      0.81691    
    1711.0      0.81716    
    1712.0      0.81741    
    1713.0      0.81766    
    1714.0      0.81791    
    1715.0      0.81816    
    1716.0      0.81841    
    1717.0      0.81865    
    1718.0      0.81890    
    1719.0      0.81915    
    1720.0      0.81939    
    1721.0      0.81964    
    1722.0      0.81988    
    1723.0      0.82013    
    1724.0      0.82037    
    1725.0      0.82062    
    1726.0      0.82086    
    1727.0      0.82111    
    1728.0      0.82135    
    1729.0      0.82160    
    1730.0      0.82184    
    1731.0      0.82209    
    1732.0      0.82233    
    1733.0      0.82257    
    1734.0      0.82281    
    1735.0      0.82306    
    1736.0      0.82330    
    1737.0      0.82354    
    1738.0      0.82378    
    1739.0      0.82402    
    1740.0      0.82426    
    1741.0      0.82450    
    1742.0      0.82474    
    1743.0      0.82497    
    1744.0      0.82521    
    1745.0      0.82545    
    1746.0      0.82569    
    1747.0      0.82592    
    1748.0      0.82616    
    1749.0      0.82639    
    1750.0      0.82663    
    1751.0      0.82687    
    1752.0      0.82710    
    1753.0      0.82733    
    1754.0      0.82757    
    1755.0      0.82780    
    1756.0      0.82804    
    1757.0      0.82827    
    1758.0      0.82850    
    1759.0      0.82873    
    1760.0      0.82897    
    1761.0      0.82920    
    1762.0      0.82943    
    1763.0      0.82966    
    1764.0      0.82989    
    1765.0      0.83012    
    1766.0      0.83035    
    1767.0      0.83058    
    1768.0      0.83081    
    1769.0      0.83103    
    1770.0      0.83126    
    1771.0      0.83149    
    1772.0      0.83172    
    1773.0      0.83194    
    1774.0      0.83217    
    1775.0      0.83240    
    1776.0      0.83262    
    1777.0      0.83285    
    1778.0      0.83307    
    1779.0      0.83330    
    1780.0      0.83352    
    1781.0      0.83374    
    1782.0      0.83397    
    1783.0      0.83419    
    1784.0      0.83441    
    1785.0      0.83463    
    1786.0      0.83486    
    1787.0      0.83508    
    1788.0      0.83530    
    1789.0      0.83552    
    1790.0      0.83574    
    1791.0      0.83596    
    1792.0      0.83618    
    1793.0      0.83640    
    1794.0      0.83662    
    1795.0      0.83684    
    1796.0      0.83705    
    1797.0      0.83727    
    1798.0      0.83749    
    1799.0      0.83771    
    1800.0      0.83792    
    1801.0      0.83814    
    1802.0      0.83835    
    1803.0      0.83857    
    1804.0      0.83879    
    1805.0      0.83900    
    1806.0      0.83921    
    1807.0      0.83943    
    1808.0      0.83964    
    1809.0      0.83985    
    1810.0      0.84007    
    1811.0      0.84028    
    1812.0      0.84049    
    1813.0      0.84070    
    1814.0      0.84092    
    1815.0      0.84113    
    1816.0      0.84134    
    1817.0      0.84155    
    1818.0      0.84176    
    1819.0      0.84197    
    1820.0      0.84218    
    1821.0      0.84238    
    1822.0      0.84259    
    1823.0      0.84280    
    1824.0      0.84301    
    1825.0      0.84322    
    1826.0      0.84342    
    1827.0      0.84363    
    1828.0      0.84384    
    1829.0      0.84404    
    1830.0      0.84425    
    1831.0      0.84445    
    1832.0      0.84466    
    1833.0      0.84486    
    1834.0      0.84507    
    1835.0      0.84527    
    1836.0      0.84547    
    1837.0      0.84568    
    1838.0      0.84588    
    1839.0      0.84608    
    1840.0      0.84628    
    1841.0      0.84649    
    1842.0      0.84669    
    1843.0      0.84689    
    1844.0      0.84709    
    1845.0      0.84729    
    1846.0      0.84749    
    1847.0      0.84769    
    1848.0      0.84789    
    1849.0      0.84809    
    1850.0      0.84829    
    1851.0      0.84848    
    1852.0      0.84868    
    1853.0      0.84888    
    1854.0      0.84908    
    1855.0      0.84927    
    1856.0      0.84947    
    1857.0      0.84967    
    1858.0      0.84986    
    1859.0      0.85006    
    1860.0      0.85025    
    1861.0      0.85045    
    1862.0      0.85064    
    1863.0      0.85084    
    1864.0      0.85103    
    1865.0      0.85122    
    1866.0      0.85142    
    1867.0      0.85161    
    1868.0      0.85180    
    1869.0      0.85199    
    1870.0      0.85219    
    1871.0      0.85238    
    1872.0      0.85257    
    1873.0      0.85276    
    1874.0      0.85295    
    1875.0      0.85314    
    1876.0      0.85333    
    1877.0      0.85352    
    1878.0      0.85371    
    1879.0      0.85390    
    1880.0      0.85409    
    1881.0      0.85427    
    1882.0      0.85446    
    1883.0      0.85465    
    1884.0      0.85484    
    1885.0      0.85502    
    1886.0      0.85521    
    1887.0      0.85540    
    1888.0      0.85558    
    1889.0      0.85577    
    1890.0      0.85596    
    1891.0      0.85614    
    1892.0      0.85632    
    1893.0      0.85651    
    1894.0      0.85669    
    1895.0      0.85688    
    1896.0      0.85706    
    1897.0      0.85724    
    1898.0      0.85743    
    1899.0      0.85761    
    1900.0      0.85779    
    1901.0      0.85797    
    1902.0      0.85816    
    1903.0      0.85834    
    1904.0      0.85852    
    1905.0      0.85870    
    1906.0      0.85888    
    1907.0      0.85906    
    1908.0      0.85924    
    1909.0      0.85942    
    1910.0      0.85960    
    1911.0      0.85978    
    1912.0      0.85996    
    1913.0      0.86013    
    1914.0      0.86031    
    1915.0      0.86049    
    1916.0      0.86067    
    1917.0      0.86084    
    1918.0      0.86102    
    1919.0      0.86120    
    1920.0      0.86137    
    1921.0      0.86155    
    1922.0      0.86173    
    1923.0      0.86190    
    1924.0      0.86208    
    1925.0      0.86225    
    1926.0      0.86242    
    1927.0      0.86260    
    1928.0      0.86277    
    1929.0      0.86295    
    1930.0      0.86312    
    1931.0      0.86329    
    1932.0      0.86347    
    1933.0      0.86364    
    1934.0      0.86381    
    1935.0      0.86398    
    1936.0      0.86415    
    1937.0      0.86432    
    1938.0      0.86450    
    1939.0      0.86467    
    1940.0      0.86484    
    1941.0      0.86501    
    1942.0      0.86518    
    1943.0      0.86535    
    1944.0      0.86551    
    1945.0      0.86568    
    1946.0      0.86585    
    1947.0      0.86602    
    1948.0      0.86619    
    1949.0      0.86636    
    1950.0      0.86652    
    1951.0      0.86669    
    1952.0      0.86686    
    1953.0      0.86702    
    1954.0      0.86719    
    1955.0      0.86736    
    1956.0      0.86752    
    1957.0      0.86769    
    1958.0      0.86785    
    1959.0      0.86802    
    1960.0      0.86818    
    1961.0      0.86835    
    1962.0      0.86851    
    1963.0      0.86868    
    1964.0      0.86884    
    1965.0      0.86900    
    1966.0      0.86917    
    1967.0      0.86933    
    1968.0      0.86949    
    1969.0      0.86965    
    1970.0      0.86982    
    1971.0      0.86998    
    1972.0      0.87014    
    1973.0      0.87030    
    1974.0      0.87046    
    1975.0      0.87062    
    1976.0      0.87078    
    1977.0      0.87094    
    1978.0      0.87110    
    1979.0      0.87126    
    1980.0      0.87142    
    1981.0      0.87158    
    1982.0      0.87174    
    1983.0      0.87190    
    1984.0      0.87205    
    1985.0      0.87221    
    1986.0      0.87237    
    1987.0      0.87253    
    1988.0      0.87269    
    1989.0      0.87284    
    1990.0      0.87300    
    1991.0      0.87316    
    1992.0      0.87331    
    1993.0      0.87347    
    1994.0      0.87362    
    1995.0      0.87378    
    1996.0      0.87393    
    1997.0      0.87408    
    1998.0      0.87424    
    1999.0      0.87439    
    2000.0      0.87454    
    2001.0      0.87470    
    2002.0      0.87485    
    2003.0      0.87500    
    2004.0      0.87515    
    2005.0      0.87531    
    2006.0      0.87546    
    2007.0      0.87561    
    2008.0      0.87576    
    2009.0      0.87591    
    2010.0      0.87606    
    2011.0      0.87621    
    2012.0      0.87636    
    2013.0      0.87651    
    2014.0      0.87666    
    2015.0      0.87681    
    2016.0      0.87696    
    2017.0      0.87711    
    2018.0      0.87726    
    2019.0      0.87741    
    2020.0      0.87756    
    2021.0      0.87770    
    2022.0      0.87785    
    2023.0      0.87800    
    2024.0      0.87815    
    2025.0      0.87829    
    2026.0      0.87844    
    2027.0      0.87859    
    2028.0      0.87874    
    2029.0      0.87888    
    2030.0      0.87903    
    2031.0      0.87918    
    2032.0      0.87933    
    2033.0      0.87947    
    2034.0      0.87962    
    2035.0      0.87977    
    2036.0      0.87991    
    2037.0      0.88006    
    2038.0      0.88020    
    2039.0      0.88035    
    2040.0      0.88049    
    2041.0      0.88064    
    2042.0      0.88078    
    2043.0      0.88093    
    2044.0      0.88107    
    2045.0      0.88122    
    2046.0      0.88136    
    2047.0      0.88150    
    2048.0      0.88165    
    2049.0      0.88179    
    2050.0      0.88193    
    2051.0      0.88208    
    2052.0      0.88222    
    2053.0      0.88236    
    2054.0      0.88250    
    2055.0      0.88264    
    2056.0      0.88278    
    2057.0      0.88293    
    2058.0      0.88307    
    2059.0      0.88321    
    2060.0      0.88335    
    2061.0      0.88349    
    2062.0      0.88363    
    2063.0      0.88377    
    2064.0      0.88391    
    2065.0      0.88405    
    2066.0      0.88419    
    2067.0      0.88433    
    2068.0      0.88447    
    2069.0      0.88461    
    2070.0      0.88474    
    2071.0      0.88488    
    2072.0      0.88502    
    2073.0      0.88516    
    2074.0      0.88530    
    2075.0      0.88543    
    2076.0      0.88557    
    2077.0      0.88571    
    2078.0      0.88585    
    2079.0      0.88598    
    2080.0      0.88612    
    2081.0      0.88626    
    2082.0      0.88639    
    2083.0      0.88653    
    2084.0      0.88666    
    2085.0      0.88680    
    2086.0      0.88693    
    2087.0      0.88707    
    2088.0      0.88720    
    2089.0      0.88734    
    2090.0      0.88747    
    2091.0      0.88761    
    2092.0      0.88774    
    2093.0      0.88787    
    2094.0      0.88801    
    2095.0      0.88814    
    2096.0      0.88827    
    2097.0      0.88841    
    2098.0      0.88854    
    2099.0      0.88867    
    2100.0      0.88880    
    2101.0      0.88893    
    2102.0      0.88907    
    2103.0      0.88920    
    2104.0      0.88933    
    2105.0      0.88946    
    2106.0      0.88959    
    2107.0      0.88972    
    2108.0      0.88985    
    2109.0      0.88998    
    2110.0      0.89011    
    2111.0      0.89024    
    2112.0      0.89037    
    2113.0      0.89050    
    2114.0      0.89063    
    2115.0      0.89076    
    2116.0      0.89089    
    2117.0      0.89102    
    2118.0      0.89115    
    2119.0      0.89128    
    2120.0      0.89140    
    2121.0      0.89153    
    2122.0      0.89166    
    2123.0      0.89179    
    2124.0      0.89191    
    2125.0      0.89204    
    2126.0      0.89217    
    2127.0      0.89230    
    2128.0      0.89242    
    2129.0      0.89255    
    2130.0      0.89267    
    2131.0      0.89280    
    2132.0      0.89293    
    2133.0      0.89305    
    2134.0      0.89318    
    2135.0      0.89330    
    2136.0      0.89343    
    2137.0      0.89355    
    2138.0      0.89368    
    2139.0      0.89380    
    2140.0      0.89393    
    2141.0      0.89405    
    2142.0      0.89417    
    2143.0      0.89430    
    2144.0      0.89442    
    2145.0      0.89454    
    2146.0      0.89467    
    2147.0      0.89479    
    2148.0      0.89491    
    2149.0      0.89504    
    2150.0      0.89516    
    2151.0      0.89528    
    2152.0      0.89540    
    2153.0      0.89552    
    2154.0      0.89564    
    2155.0      0.89577    
    2156.0      0.89589    
    2157.0      0.89601    
    2158.0      0.89613    
    2159.0      0.89625    
    2160.0      0.89637    
    2161.0      0.89649    
    2162.0      0.89661    
    2163.0      0.89673    
    2164.0      0.89685    
    2165.0      0.89697    
    2166.0      0.89709    
    2167.0      0.89721    
    2168.0      0.89733    
    2169.0      0.89745    
    2170.0      0.89756    
    2171.0      0.89768    
    2172.0      0.89780    
    2173.0      0.89792    
    2174.0      0.89804    
    2175.0      0.89816    
    2176.0      0.89827    
    2177.0      0.89839    
    2178.0      0.89851    
    2179.0      0.89862    
    2180.0      0.89874    
    2181.0      0.89886    
    2182.0      0.89897    
    2183.0      0.89909    
    2184.0      0.89921    
    2185.0      0.89932    
    2186.0      0.89944    
    2187.0      0.89955    
    2188.0      0.89967    
    2189.0      0.89978    
    2190.0      0.89990    
    2191.0      0.90001    
    2192.0      0.90013    
    2193.0      0.90024    
    2194.0      0.90036    
    2195.0      0.90047    
    2196.0      0.90059    
    2197.0      0.90070    
    2198.0      0.90081    
    2199.0      0.90093    
    2200.0      0.90104    
    2201.0      0.90115    
    2202.0      0.90127    
    2203.0      0.90138    
    2204.0      0.90149    
    2205.0      0.90161    
    2206.0      0.90172    
    2207.0      0.90183    
    2208.0      0.90194    
    2209.0      0.90205    
    2210.0      0.90217    
    2211.0      0.90228    
    2212.0      0.90239    
    2213.0      0.90250    
    2214.0      0.90261    
    2215.0      0.90272    
    2216.0      0.90283    
    2217.0      0.90294    
    2218.0      0.90305    
    2219.0      0.90316    
    2220.0      0.90327    
    2221.0      0.90338    
    2222.0      0.90349    
    2223.0      0.90360    
    2224.0      0.90371    
    2225.0      0.90382    
    2226.0      0.90393    
    2227.0      0.90404    
    2228.0      0.90415    
    2229.0      0.90426    
    2230.0      0.90436    
    2231.0      0.90447    
    2232.0      0.90458    
    2233.0      0.90469    
    2234.0      0.90480    
    2235.0      0.90490    
    2236.0      0.90501    
    2237.0      0.90512    
    2238.0      0.90523    
    2239.0      0.90533    
    2240.0      0.90544    
    2241.0      0.90555    
    2242.0      0.90565    
    2243.0      0.90576    
    2244.0      0.90586    
    2245.0      0.90597    
    2246.0      0.90608    
    2247.0      0.90618    
    2248.0      0.90629    
    2249.0      0.90639    
    2250.0      0.90650    
    2251.0      0.90660    
    2252.0      0.90671    
    2253.0      0.90681    
    2254.0      0.90692    
    2255.0      0.90702    
    2256.0      0.90713    
    2257.0      0.90723    
    2258.0      0.90733    
    2259.0      0.90744    
    2260.0      0.90754    
    2261.0      0.90764    
    2262.0      0.90775    
    2263.0      0.90785    
    2264.0      0.90795    
    2265.0      0.90806    
    2266.0      0.90816    
    2267.0      0.90826    
    2268.0      0.90836    
    2269.0      0.90847    
    2270.0      0.90857    
    2271.0      0.90867    
    2272.0      0.90877    
    2273.0      0.90887    
    2274.0      0.90898    
    2275.0      0.90908    
    2276.0      0.90918    
    2277.0      0.90928    
    2278.0      0.90938    
    2279.0      0.90948    
    2280.0      0.90958    
    2281.0      0.90968    
    2282.0      0.90978    
    2283.0      0.90988    
    2284.0      0.90998    
    2285.0      0.91008    
    2286.0      0.91018    
    2287.0      0.91028    
    2288.0      0.91038    
    2289.0      0.91048    
    2290.0      0.91058    
    2291.0      0.91068    
    2292.0      0.91078    
    2293.0      0.91088    
    2294.0      0.91097    
    2295.0      0.91107    
    2296.0      0.91117    
    2297.0      0.91127    
    2298.0      0.91137    
    2299.0      0.91146    
    2300.0      0.91156    
    2301.0      0.91166    
    2302.0      0.91176    
    2303.0      0.91185    
    2304.0      0.91195    
    2305.0      0.91205    
    2306.0      0.91215    
    2307.0      0.91224    
    2308.0      0.91234    
    2309.0      0.91243    
    2310.0      0.91253    
    2311.0      0.91263    
    2312.0      0.91272    
    2313.0      0.91282    
    2314.0      0.91291    
    2315.0      0.91301    
    2316.0      0.91311    
    2317.0      0.91320    
    2318.0      0.91330    
    2319.0      0.91339    
    2320.0      0.91349    
    2321.0      0.91358    
    2322.0      0.91368    
    2323.0      0.91377    
    2324.0      0.91386    
    2325.0      0.91396    
    2326.0      0.91405    
    2327.0      0.91415    
    2328.0      0.91424    
    2329.0      0.91433    
    2330.0      0.91443    
    2331.0      0.91452    
    2332.0      0.91461    
    2333.0      0.91471    
    2334.0      0.91480    
    2335.0      0.91489    
    2336.0      0.91499    
    2337.0      0.91508    
    2338.0      0.91517    
    2339.0      0.91526    
    2340.0      0.91535    
    2341.0      0.91545    
    2342.0      0.91554    
    2343.0      0.91563    
    2344.0      0.91572    
    2345.0      0.91581    
    2346.0      0.91591    
    2347.0      0.91600    
    2348.0      0.91609    
    2349.0      0.91618    
    2350.0      0.91627    
    2351.0      0.91636    
    2352.0      0.91645    
    2353.0      0.91654    
    2354.0      0.91663    
    2355.0      0.91672    
    2356.0      0.91681    
    2357.0      0.91690    
    2358.0      0.91699    
    2359.0      0.91708    
    2360.0      0.91717    
    2361.0      0.91726    
    2362.0      0.91735    
    2363.0      0.91744    
    2364.0      0.91753    
    2365.0      0.91762    
    2366.0      0.91771    
    2367.0      0.91779    
    2368.0      0.91788    
    2369.0      0.91797    
    2370.0      0.91806    
    2371.0      0.91815    
    2372.0      0.91824    
    2373.0      0.91832    
    2374.0      0.91841    
    2375.0      0.91850    
    2376.0      0.91859    
    2377.0      0.91867    
    2378.0      0.91876    
    2379.0      0.91885    
    2380.0      0.91894    
    2381.0      0.91902    
    2382.0      0.91911    
    2383.0      0.91920    
    2384.0      0.91928    
    2385.0      0.91937    
    2386.0      0.91946    
    2387.0      0.91954    
    2388.0      0.91963    
    2389.0      0.91971    
    2390.0      0.91980    
    2391.0      0.91989    
    2392.0      0.91997    
    2393.0      0.92006    
    2394.0      0.92014    
    2395.0      0.92023    
    2396.0      0.92031    
    2397.0      0.92040    
    2398.0      0.92048    
    2399.0      0.92057    
    2400.0      0.92065    
    2401.0      0.92074    
    2402.0      0.92082    
    2403.0      0.92090    
    2404.0      0.92099    
    2405.0      0.92107    
    2406.0      0.92116    
    2407.0      0.92124    
    2408.0      0.92132    
    2409.0      0.92141    
    2410.0      0.92149    
    2411.0      0.92157    
    2412.0      0.92166    
    2413.0      0.92174    
    2414.0      0.92182    
    2415.0      0.92191    
    2416.0      0.92199    
    2417.0      0.92207    
    2418.0      0.92215    
    2419.0      0.92224    
    2420.0      0.92232    
    2421.0      0.92240    
    2422.0      0.92248    
    2423.0      0.92256    
    2424.0      0.92265    
    2425.0      0.92273    
    2426.0      0.92281    
    2427.0      0.92289    
    2428.0      0.92297    
    2429.0      0.92305    
    2430.0      0.92313    
    2431.0      0.92322    
    2432.0      0.92330    
    2433.0      0.92338    
    2434.0      0.92346    
    2435.0      0.92354    
    2436.0      0.92362    
    2437.0      0.92370    
    2438.0      0.92378    
    2439.0      0.92386    
    2440.0      0.92394    
    2441.0      0.92402    
    2442.0      0.92410    
    2443.0      0.92418    
    2444.0      0.92426    
    2445.0      0.92434    
    2446.0      0.92442    
    2447.0      0.92450    
    2448.0      0.92457    
    2449.0      0.92465    
    2450.0      0.92473    
    2451.0      0.92481    
    2452.0      0.92489    
    2453.0      0.92497    
    2454.0      0.92505    
    2455.0      0.92512    
    2456.0      0.92520    
    2457.0      0.92528    
    2458.0      0.92536    
    2459.0      0.92544    
    2460.0      0.92551    
    2461.0      0.92559    
    2462.0      0.92567    
    2463.0      0.92575    
    2464.0      0.92582    
    2465.0      0.92590    
    2466.0      0.92598    
    2467.0      0.92606    
    2468.0      0.92613    
    2469.0      0.92621    
    2470.0      0.92629    
    2471.0      0.92636    
    2472.0      0.92644    
    2473.0      0.92652    
    2474.0      0.92659    
    2475.0      0.92667    
    2476.0      0.92674    
    2477.0      0.92682    
    2478.0      0.92690    
    2479.0      0.92697    
    2480.0      0.92705    
    2481.0      0.92712    
    2482.0      0.92720    
    2483.0      0.92727    
    2484.0      0.92735    
    2485.0      0.92742    
    2486.0      0.92750    
    2487.0      0.92757    
    2488.0      0.92765    
    2489.0      0.92772    
    2490.0      0.92780    
    2491.0      0.92787    
    2492.0      0.92795    
    2493.0      0.92802    
    2494.0      0.92810    
    2495.0      0.92817    
    2496.0      0.92824    
    2497.0      0.92832    
    2498.0      0.92839    
    2499.0      0.92846    
    2500.0      0.92854    
    2501.0      0.92861    
    2502.0      0.92869    
    2503.0      0.92876    
    2504.0      0.92883    
    2505.0      0.92890    
    2506.0      0.92898    
    2507.0      0.92905    
    2508.0      0.92912    
    2509.0      0.92920    
    2510.0      0.92927    
    2511.0      0.92934    
    2512.0      0.92941    
    2513.0      0.92949    
    2514.0      0.92956    
    2515.0      0.92963    
    2516.0      0.92970    
    2517.0      0.92977    
    2518.0      0.92985    
    2519.0      0.92992    
    2520.0      0.92999    
    2521.0      0.93006    
    2522.0      0.93013    
    2523.0      0.93020    
    2524.0      0.93027    
    2525.0      0.93035    
    2526.0      0.93042    
    2527.0      0.93049    
    2528.0      0.93056    
    2529.0      0.93063    
    2530.0      0.93070    
    2531.0      0.93077    
    2532.0      0.93084    
    2533.0      0.93091    
    2534.0      0.93098    
    2535.0      0.93105    
    2536.0      0.93112    
    2537.0      0.93119    
    2538.0      0.93126    
    2539.0      0.93133    
    2540.0      0.93140    
    2541.0      0.93147    
    2542.0      0.93154    
    2543.0      0.93161    
    2544.0      0.93168    
    2545.0      0.93175    
    2546.0      0.93182    
    2547.0      0.93189    
    2548.0      0.93196    
    2549.0      0.93202    
    2550.0      0.93209    
    2551.0      0.93216    
    2552.0      0.93223    
    2553.0      0.93230    
    2554.0      0.93237    
    2555.0      0.93244    
    2556.0      0.93250    
    2557.0      0.93257    
    2558.0      0.93264    
    2559.0      0.93271    
    2560.0      0.93278    
    2561.0      0.93284    
    2562.0      0.93291    
    2563.0      0.93298    
    2564.0      0.93305    
    2565.0      0.93311    
    2566.0      0.93318    
    2567.0      0.93325    
    2568.0      0.93331    
    2569.0      0.93338    
    2570.0      0.93345    
    2571.0      0.93352    
    2572.0      0.93358    
    2573.0      0.93365    
    2574.0      0.93372    
    2575.0      0.93378    
    2576.0      0.93385    
    2577.0      0.93391    
    2578.0      0.93398    
    2579.0      0.93405    
    2580.0      0.93411    
    2581.0      0.93418    
    2582.0      0.93424    
    2583.0      0.93431    
    2584.0      0.93438    
    2585.0      0.93444    
    2586.0      0.93451    
    2587.0      0.93457    
    2588.0      0.93464    
    2589.0      0.93470    
    2590.0      0.93477    
    2591.0      0.93483    
    2592.0      0.93490    
    2593.0      0.93496    
    2594.0      0.93503    
    2595.0      0.93509    
    2596.0      0.93516    
    2597.0      0.93522    
    2598.0      0.93529    
    2599.0      0.93535    
    2600.0      0.93541    
    2601.0      0.93548    
    2602.0      0.93554    
    2603.0      0.93561    
    2604.0      0.93567    
    2605.0      0.93573    
    2606.0      0.93580    
    2607.0      0.93586    
    2608.0      0.93593    
    2609.0      0.93599    
    2610.0      0.93605    
    2611.0      0.93612    
    2612.0      0.93618    
    2613.0      0.93624    
    2614.0      0.93631    
    2615.0      0.93637    
    2616.0      0.93643    
    2617.0      0.93649    
    2618.0      0.93656    
    2619.0      0.93662    
    2620.0      0.93668    
    2621.0      0.93675    
    2622.0      0.93681    
    2623.0      0.93687    
    2624.0      0.93693    
    2625.0      0.93699    
    2626.0      0.93706    
    2627.0      0.93712    
    2628.0      0.93718    
    2629.0      0.93724    
    2630.0      0.93730    
    2631.0      0.93737    
    2632.0      0.93743    
    2633.0      0.93749    
    2634.0      0.93755    
    2635.0      0.93761    
    2636.0      0.93767    
    2637.0      0.93773    
    2638.0      0.93780    
    2639.0      0.93786    
    2640.0      0.93792    
    2641.0      0.93798    
    2642.0      0.93804    
    2643.0      0.93810    
    2644.0      0.93816    
    2645.0      0.93822    
    2646.0      0.93828    
    2647.0      0.93834    
    2648.0      0.93840    
    2649.0      0.93846    
    2650.0      0.93852    
    2651.0      0.93858    
    2652.0      0.93864    
    2653.0      0.93870    
    2654.0      0.93876    
    2655.0      0.93882    
    2656.0      0.93888    
    2657.0      0.93894    
    2658.0      0.93900    
    2659.0      0.93906    
    2660.0      0.93912    
    2661.0      0.93918    
    2662.0      0.93924    
    2663.0      0.93930    
    2664.0      0.93936    
    2665.0      0.93942    
    2666.0      0.93948    
    2667.0      0.93954    
    2668.0      0.93959    
    2669.0      0.93965    
    2670.0      0.93971    
    2671.0      0.93977    
    2672.0      0.93983    
    2673.0      0.93989    
    2674.0      0.93995    
    2675.0      0.94000    
    2676.0      0.94006    
    2677.0      0.94012    
    2678.0      0.94018    
    2679.0      0.94024    
    2680.0      0.94029    
    2681.0      0.94035    
    2682.0      0.94041    
    2683.0      0.94047    
    2684.0      0.94052    
    2685.0      0.94058    
    2686.0      0.94064    
    2687.0      0.94070    
    2688.0      0.94075    
    2689.0      0.94081    
    2690.0      0.94087    
    2691.0      0.94093    
    2692.0      0.94098    
    2693.0      0.94104    
    2694.0      0.94110    
    2695.0      0.94115    
    2696.0      0.94121    
    2697.0      0.94127    
    2698.0      0.94132    
    2699.0      0.94138    
    2700.0      0.94144    
    2701.0      0.94149    
    2702.0      0.94155    
    2703.0      0.94160    
    2704.0      0.94166    
    2705.0      0.94172    
    2706.0      0.94177    
    2707.0      0.94183    
    2708.0      0.94188    
    2709.0      0.94194    
    2710.0      0.94200    
    2711.0      0.94205    
    2712.0      0.94211    
    2713.0      0.94216    
    2714.0      0.94222    
    2715.0      0.94227    
    2716.0      0.94233    
    2717.0      0.94238    
    2718.0      0.94244    
    2719.0      0.94249    
    2720.0      0.94255    
    2721.0      0.94260    
    2722.0      0.94266    
    2723.0      0.94271    
    2724.0      0.94277    
    2725.0      0.94282    
    2726.0      0.94288    
    2727.0      0.94293    
    2728.0      0.94299    
    2729.0      0.94304    
    2730.0      0.94309    
    2731.0      0.94315    
    2732.0      0.94320    
    2733.0      0.94326    
    2734.0      0.94331    
    2735.0      0.94337    
    2736.0      0.94342    
    2737.0      0.94347    
    2738.0      0.94353    
    2739.0      0.94358    
    2740.0      0.94363    
    2741.0      0.94369    
    2742.0      0.94374    
    2743.0      0.94379    
    2744.0      0.94385    
    2745.0      0.94390    
    2746.0      0.94395    
    2747.0      0.94401    
    2748.0      0.94406    
    2749.0      0.94411    
    2750.0      0.94417    
    2751.0      0.94422    
    2752.0      0.94427    
    2753.0      0.94432    
    2754.0      0.94438    
    2755.0      0.94443    
    2756.0      0.94448    
    2757.0      0.94453    
    2758.0      0.94459    
    2759.0      0.94464    
    2760.0      0.94469    
    2761.0      0.94474    
    2762.0      0.94480    
    2763.0      0.94485    
    2764.0      0.94490    
    2765.0      0.94495    
    2766.0      0.94500    
    2767.0      0.94506    
    2768.0      0.94511    
    2769.0      0.94516    
    2770.0      0.94521    
    2771.0      0.94526    
    2772.0      0.94531    
    2773.0      0.94536    
    2774.0      0.94542    
    2775.0      0.94547    
    2776.0      0.94552    
    2777.0      0.94557    
    2778.0      0.94562    
    2779.0      0.94567    
    2780.0      0.94572    
    2781.0      0.94577    
    2782.0      0.94582    
    2783.0      0.94588    
    2784.0      0.94593    
    2785.0      0.94598    
    2786.0      0.94603    
    2787.0      0.94608    
    2788.0      0.94613    
    2789.0      0.94618    
    2790.0      0.94623    
    2791.0      0.94628    
    2792.0      0.94633    
    2793.0      0.94638    
    2794.0      0.94643    
    2795.0      0.94648    
    2796.0      0.94653    
    2797.0      0.94658    
    2798.0      0.94663    
    2799.0      0.94668    
    2800.0      0.94673    
    2801.0      0.94678    
    2802.0      0.94683    
    2803.0      0.94688    
    2804.0      0.94693    
    2805.0      0.94698    
    2806.0      0.94703    
    2807.0      0.94707    
    2808.0      0.94712    
    2809.0      0.94717    
    2810.0      0.94722    
    2811.0      0.94727    
    2812.0      0.94732    
    2813.0      0.94737    
    2814.0      0.94742    
    2815.0      0.94747    
    2816.0      0.94752    
    2817.0      0.94756    
    2818.0      0.94761    
    2819.0      0.94766    
    2820.0      0.94771    
    2821.0      0.94776    
    2822.0      0.94781    
    2823.0      0.94785    
    2824.0      0.94790    
    2825.0      0.94795    
    2826.0      0.94800    
    2827.0      0.94805    
    2828.0      0.94809    
    2829.0      0.94814    
    2830.0      0.94819    
    2831.0      0.94824    
    2832.0      0.94829    
    2833.0      0.94833    
    2834.0      0.94838    
    2835.0      0.94843    
    2836.0      0.94848    
    2837.0      0.94852    
    2838.0      0.94857    
    2839.0      0.94862    
    2840.0      0.94867    
    2841.0      0.94871    
    2842.0      0.94876    
    2843.0      0.94881    
    2844.0      0.94885    
    2845.0      0.94890    
    2846.0      0.94895    
    2847.0      0.94900    
    2848.0      0.94904    
    2849.0      0.94909    
    2850.0      0.94914    
    2851.0      0.94918    
    2852.0      0.94923    
    2853.0      0.94928    
    2854.0      0.94932    
    2855.0      0.94937    
    2856.0      0.94941    
    2857.0      0.94946    
    2858.0      0.94951    
    2859.0      0.94955    
    2860.0      0.94960    
    2861.0      0.94965    
    2862.0      0.94969    
    2863.0      0.94974    
    2864.0      0.94978    
    2865.0      0.94983    
    2866.0      0.94988    
    2867.0      0.94992    
    2868.0      0.94997    
    2869.0      0.95001    
    2870.0      0.95006    
    2871.0      0.95010    
    2872.0      0.95015    
    2873.0      0.95019    
    2874.0      0.95024    
    2875.0      0.95029    
    2876.0      0.95033    
    2877.0      0.95038    
    2878.0      0.95042    
    2879.0      0.95047    
    2880.0      0.95051    
    2881.0      0.95056    
    2882.0      0.95060    
    2883.0      0.95065    
    2884.0      0.95069    
    2885.0      0.95074    
    2886.0      0.95078    
    2887.0      0.95082    
    2888.0      0.95087    
    2889.0      0.95091    
    2890.0      0.95096    
    2891.0      0.95100    
    2892.0      0.95105    
    2893.0      0.95109    
    2894.0      0.95114    
    2895.0      0.95118    
    2896.0      0.95122    
    2897.0      0.95127    
    2898.0      0.95131    
    2899.0      0.95136    
    2900.0      0.95140    
    2901.0      0.95144    
    2902.0      0.95149    
    2903.0      0.95153    
    2904.0      0.95158    
    2905.0      0.95162    
    2906.0      0.95166    
    2907.0      0.95171    
    2908.0      0.95175    
    2909.0      0.95179    
    2910.0      0.95184    
    2911.0      0.95188    
    2912.0      0.95192    
    2913.0      0.95197    
    2914.0      0.95201    
    2915.0      0.95205    
    2916.0      0.95210    
    2917.0      0.95214    
    2918.0      0.95218    
    2919.0      0.95223    
    2920.0      0.95227    
    2921.0      0.95231    
    2922.0      0.95235    
    2923.0      0.95240    
    2924.0      0.95244    
    2925.0      0.95248    
    2926.0      0.95252    
    2927.0      0.95257    
    2928.0      0.95261    
    2929.0      0.95265    
    2930.0      0.95269    
    2931.0      0.95274    
    2932.0      0.95278    
    2933.0      0.95282    
    2934.0      0.95286    
    2935.0      0.95291    
    2936.0      0.95295    
    2937.0      0.95299    
    2938.0      0.95303    
    2939.0      0.95307    
    2940.0      0.95312    
    2941.0      0.95316    
    2942.0      0.95320    
    2943.0      0.95324    
    2944.0      0.95328    
    2945.0      0.95332    
    2946.0      0.95337    
    2947.0      0.95341    
    2948.0      0.95345    
    2949.0      0.95349    
    2950.0      0.95353    
    2951.0      0.95357    
    2952.0      0.95361    
    2953.0      0.95366    
    2954.0      0.95370    
    2955.0      0.95374    
    2956.0      0.95378    
    2957.0      0.95382    
    2958.0      0.95386    
    2959.0      0.95390    
    2960.0      0.95394    
    2961.0      0.95398    
    2962.0      0.95402    
    2963.0      0.95407    
    2964.0      0.95411    
    2965.0      0.95415    
    2966.0      0.95419    
    2967.0      0.95423    
    2968.0      0.95427    
    2969.0      0.95431    
    2970.0      0.95435    
    2971.0      0.95439    
    2972.0      0.95443    
    2973.0      0.95447    
    2974.0      0.95451    
    2975.0      0.95455    
    2976.0      0.95459    
    2977.0      0.95463    
    2978.0      0.95467    
    2979.0      0.95471    
    2980.0      0.95475    
    2981.0      0.95479    
    2982.0      0.95483    
    2983.0      0.95487    
    2984.0      0.95491    
    2985.0      0.95495    
    2986.0      0.95499    
    2987.0      0.95503    
    2988.0      0.95507    
    2989.0      0.95511    
    2990.0      0.95515    
    2991.0      0.95519    
    2992.0      0.95523    
    2993.0      0.95526    
    2994.0      0.95530    
    2995.0      0.95534    
    2996.0      0.95538    
    2997.0      0.95542    
    2998.0      0.95546    
    2999.0      0.95550    
    3000.0      0.95554    
    3001.0      0.95558    
    3002.0      0.95562    
    3003.0      0.95566    
    3004.0      0.95569    
    3005.0      0.95573    
    3006.0      0.95577    
    3007.0      0.95581    
    3008.0      0.95585    
    3009.0      0.95589    
    3010.0      0.95593    
    3011.0      0.95596    
    3012.0      0.95600    
    3013.0      0.95604    
    3014.0      0.95608    
    3015.0      0.95612    
    3016.0      0.95616    
    3017.0      0.95619    
    3018.0      0.95623    
    3019.0      0.95627    
    3020.0      0.95631    
    3021.0      0.95635    
    3022.0      0.95638    
    3023.0      0.95642    
    3024.0      0.95646    
    3025.0      0.95650    
    3026.0      0.95654    
    3027.0      0.95657    
    3028.0      0.95661    
    3029.0      0.95665    
    3030.0      0.95669    
    3031.0      0.95673    
    3032.0      0.95676    
    3033.0      0.95680    
    3034.0      0.95684    
    3035.0      0.95688    
    3036.0      0.95691    
    3037.0      0.95695    
    3038.0      0.95699    
    3039.0      0.95702    
    3040.0      0.95706    
    3041.0      0.95710    
    3042.0      0.95714    
    3043.0      0.95717    
    3044.0      0.95721    
    3045.0      0.95725    
    3046.0      0.95728    
    3047.0      0.95732    
    3048.0      0.95736    
    3049.0      0.95739    
    3050.0      0.95743    
    3051.0      0.95747    
    3052.0      0.95751    
    3053.0      0.95754    
    3054.0      0.95758    
    3055.0      0.95762    
    3056.0      0.95765    
    3057.0      0.95769    
    3058.0      0.95772    
    3059.0      0.95776    
    3060.0      0.95780    
    3061.0      0.95783    
    3062.0      0.95787    
    3063.0      0.95791    
    3064.0      0.95794    
    3065.0      0.95798    
    3066.0      0.95801    
    3067.0      0.95805    
    3068.0      0.95809    
    3069.0      0.95812    
    3070.0      0.95816    
    3071.0      0.95819    
    3072.0      0.95823    
    3073.0      0.95827    
    3074.0      0.95830    
    3075.0      0.95834    
    3076.0      0.95837    
    3077.0      0.95841    
    3078.0      0.95844    
    3079.0      0.95848    
    3080.0      0.95852    
    3081.0      0.95855    
    3082.0      0.95859    
    3083.0      0.95862    
    3084.0      0.95866    
    3085.0      0.95869    
    3086.0      0.95873    
    3087.0      0.95876    
    3088.0      0.95880    
    3089.0      0.95883    
    3090.0      0.95887    
    3091.0      0.95890    
    3092.0      0.95894    
    3093.0      0.95897    
    3094.0      0.95901    
    3095.0      0.95904    
    3096.0      0.95908    
    3097.0      0.95911    
    3098.0      0.95915    
    3099.0      0.95918    
    3100.0      0.95922    
    3101.0      0.95925    
    3102.0      0.95929    
    3103.0      0.95932    
    3104.0      0.95936    
    3105.0      0.95939    
    3106.0      0.95943    
    3107.0      0.95946    
    3108.0      0.95949    
    3109.0      0.95953    
    3110.0      0.95956    
    3111.0      0.95960    
    3112.0      0.95963    
    3113.0      0.95967    
    3114.0      0.95970    
    3115.0      0.95973    
    3116.0      0.95977    
    3117.0      0.95980    
    3118.0      0.95984    
    3119.0      0.95987    
    3120.0      0.95990    
    3121.0      0.95994    
    3122.0      0.95997    
    3123.0      0.96001    
    3124.0      0.96004    
    3125.0      0.96007    
    3126.0      0.96011    
    3127.0      0.96014    
    3128.0      0.96017    
    3129.0      0.96021    
    3130.0      0.96024    
    3131.0      0.96028    
    3132.0      0.96031    
    3133.0      0.96034    
    3134.0      0.96038    
    3135.0      0.96041    
    3136.0      0.96044    
    3137.0      0.96048    
    3138.0      0.96051    
    3139.0      0.96054    
    3140.0      0.96058    
    3141.0      0.96061    
    3142.0      0.96064    
    3143.0      0.96067    
    3144.0      0.96071    
    3145.0      0.96074    
    3146.0      0.96077    
    3147.0      0.96081    
    3148.0      0.96084    
    3149.0      0.96087    
    3150.0      0.96091    
    3151.0      0.96094    
    3152.0      0.96097    
    3153.0      0.96100    
    3154.0      0.96104    
    3155.0      0.96107    
    3156.0      0.96110    
    3157.0      0.96113    
    3158.0      0.96117    
    3159.0      0.96120    
    3160.0      0.96123    
    3161.0      0.96126    
    3162.0      0.96130    
    3163.0      0.96133    
    3164.0      0.96136    
    3165.0      0.96139    
    3166.0      0.96142    
    3167.0      0.96146    
    3168.0      0.96149    
    3169.0      0.96152    
    3170.0      0.96155    
    3171.0      0.96159    
    3172.0      0.96162    
    3173.0      0.96165    
    3174.0      0.96168    
    3175.0      0.96171    
    3176.0      0.96175    
    3177.0      0.96178    
    3178.0      0.96181    
    3179.0      0.96184    
    3180.0      0.96187    
    3181.0      0.96190    
    3182.0      0.96194    
    3183.0      0.96197    
    3184.0      0.96200    
    3185.0      0.96203    
    3186.0      0.96206    
    3187.0      0.96209    
    3188.0      0.96212    
    3189.0      0.96216    
    3190.0      0.96219    
    3191.0      0.96222    
    3192.0      0.96225    
    3193.0      0.96228    
    3194.0      0.96231    
    3195.0      0.96234    
    3196.0      0.96238    
    3197.0      0.96241    
    3198.0      0.96244    
    3199.0      0.96247    
    3200.0      0.96250    
    3201.0      0.96253    
    3202.0      0.96256    
    3203.0      0.96259    
    3204.0      0.96262    
    3205.0      0.96265    
    3206.0      0.96268    
    3207.0      0.96272    
    3208.0      0.96275    
    3209.0      0.96278    
    3210.0      0.96281    
    3211.0      0.96284    
    3212.0      0.96287    
    3213.0      0.96290    
    3214.0      0.96293    
    3215.0      0.96296    
    3216.0      0.96299    
    3217.0      0.96302    
    3218.0      0.96305    
    3219.0      0.96308    
    3220.0      0.96311    
    3221.0      0.96314    
    3222.0      0.96317    
    3223.0      0.96320    
    3224.0      0.96323    
    3225.0      0.96326    
    3226.0      0.96329    
    3227.0      0.96332    
    3228.0      0.96335    
    3229.0      0.96338    
    3230.0      0.96341    
    3231.0      0.96344    
    3232.0      0.96347    
    3233.0      0.96350    
    3234.0      0.96353    
    3235.0      0.96356    
    3236.0      0.96359    
    3237.0      0.96362    
    3238.0      0.96365    
    3239.0      0.96368    
    3240.0      0.96371    
    3241.0      0.96374    
    3242.0      0.96377    
    3243.0      0.96380    
    3244.0      0.96383    
    3245.0      0.96386    
    3246.0      0.96389    
    3247.0      0.96392    
    3248.0      0.96395    
    3249.0      0.96398    
    3250.0      0.96401    
    3251.0      0.96404    
    3252.0      0.96407    
    3253.0      0.96410    
    3254.0      0.96412    
    3255.0      0.96415    
    3256.0      0.96418    
    3257.0      0.96421    
    3258.0      0.96424    
    3259.0      0.96427    
    3260.0      0.96430    
    3261.0      0.96433    
    3262.0      0.96436    
    3263.0      0.96439    
    3264.0      0.96442    
    3265.0      0.96444    
    3266.0      0.96447    
    3267.0      0.96450    
    3268.0      0.96453    
    3269.0      0.96456    
    3270.0      0.96459    
    3271.0      0.96462    
    3272.0      0.96465    
    3273.0      0.96467    
    3274.0      0.96470    
    3275.0      0.96473    
    3276.0      0.96476    
    3277.0      0.96479    
    3278.0      0.96482    
    3279.0      0.96485    
    3280.0      0.96487    
    3281.0      0.96490    
    3282.0      0.96493    
    3283.0      0.96496    
    3284.0      0.96499    
    3285.0      0.96502    
    3286.0      0.96504    
    3287.0      0.96507    
    3288.0      0.96510    
    3289.0      0.96513    
    3290.0      0.96516    
    3291.0      0.96518    
    3292.0      0.96521    
    3293.0      0.96524    
    3294.0      0.96527    
    3295.0      0.96530    
    3296.0      0.96532    
    3297.0      0.96535    
    3298.0      0.96538    
    3299.0      0.96541    
    3300.0      0.96544    
    3301.0      0.96546    
    3302.0      0.96549    
    3303.0      0.96552    
    3304.0      0.96555    
    3305.0      0.96557    
    3306.0      0.96560    
    3307.0      0.96563    
    3308.0      0.96566    
    3309.0      0.96569    
    3310.0      0.96571    
    3311.0      0.96574    
    3312.0      0.96577    
    3313.0      0.96580    
    3314.0      0.96582    
    3315.0      0.96585    
    3316.0      0.96588    
    3317.0      0.96590    
    3318.0      0.96593    
    3319.0      0.96596    
    3320.0      0.96599    
    3321.0      0.96601    
    3322.0      0.96604    
    3323.0      0.96607    
    3324.0      0.96609    
    3325.0      0.96612    
    3326.0      0.96615    
    3327.0      0.96618    
    3328.0      0.96620    
    3329.0      0.96623    
    3330.0      0.96626    
    3331.0      0.96628    
    3332.0      0.96631    
    3333.0      0.96634    
    3334.0      0.96636    
    3335.0      0.96639    
    3336.0      0.96642    
    3337.0      0.96644    
    3338.0      0.96647    
    3339.0      0.96650    
    3340.0      0.96652    
    3341.0      0.96655    
    3342.0      0.96658    
    3343.0      0.96660    
    3344.0      0.96663    
    3345.0      0.96666    
    3346.0      0.96668    
    3347.0      0.96671    
    3348.0      0.96674    
    3349.0      0.96676    
    3350.0      0.96679    
    3351.0      0.96682    
    3352.0      0.96684    
    3353.0      0.96687    
    3354.0      0.96689    
    3355.0      0.96692    
    3356.0      0.96695    
    3357.0      0.96697    
    3358.0      0.96700    
    3359.0      0.96703    
    3360.0      0.96705    
    3361.0      0.96708    
    3362.0      0.96710    
    3363.0      0.96713    
    3364.0      0.96716    
    3365.0      0.96718    
    3366.0      0.96721    
    3367.0      0.96723    
    3368.0      0.96726    
    3369.0      0.96728    
    3370.0      0.96731    
    3371.0      0.96734    
    3372.0      0.96736    
    3373.0      0.96739    
    3374.0      0.96741    
    3375.0      0.96744    
    3376.0      0.96746    
    3377.0      0.96749    
    3378.0      0.96752    
    3379.0      0.96754    
    3380.0      0.96757    
    3381.0      0.96759    
    3382.0      0.96762    
    3383.0      0.96764    
    3384.0      0.96767    
    3385.0      0.96769    
    3386.0      0.96772    
    3387.0      0.96774    
    3388.0      0.96777    
    3389.0      0.96780    
    3390.0      0.96782    
    3391.0      0.96785    
    3392.0      0.96787    
    3393.0      0.96790    
    3394.0      0.96792    
    3395.0      0.96795    
    3396.0      0.96797    
    3397.0      0.96800    
    3398.0      0.96802    
    3399.0      0.96805    
    3400.0      0.96807    
    3401.0      0.96810    
    3402.0      0.96812    
    3403.0      0.96815    
    3404.0      0.96817    
    3405.0      0.96820    
    3406.0      0.96822    
    3407.0      0.96825    
    3408.0      0.96827    
    3409.0      0.96830    
    3410.0      0.96832    
    3411.0      0.96835    
    3412.0      0.96837    
    3413.0      0.96839    
    3414.0      0.96842    
    3415.0      0.96844    
    3416.0      0.96847    
    3417.0      0.96849    
    3418.0      0.96852    
    3419.0      0.96854    
    3420.0      0.96857    
    3421.0      0.96859    
    3422.0      0.96862    
    3423.0      0.96864    
    3424.0      0.96866    
    3425.0      0.96869    
    3426.0      0.96871    
    3427.0      0.96874    
    3428.0      0.96876    
    3429.0      0.96879    
    3430.0      0.96881    
    3431.0      0.96883    
    3432.0      0.96886    
    3433.0      0.96888    
    3434.0      0.96891    
    3435.0      0.96893    
    3436.0      0.96895    
    3437.0      0.96898    
    3438.0      0.96900    
    3439.0      0.96903    
    3440.0      0.96905    
    3441.0      0.96907    
    3442.0      0.96910    
    3443.0      0.96912    
    3444.0      0.96915    
    3445.0      0.96917    
    3446.0      0.96919    
    3447.0      0.96922    
    3448.0      0.96924    
    3449.0      0.96927    
    3450.0      0.96929    
    3451.0      0.96931    
    3452.0      0.96934    
    3453.0      0.96936    
    3454.0      0.96938    
    3455.0      0.96941    
    3456.0      0.96943    
    3457.0      0.96945    
    3458.0      0.96948    
    3459.0      0.96950    
    3460.0      0.96952    
    3461.0      0.96955    
    3462.0      0.96957    
    3463.0      0.96960    
    3464.0      0.96962    
    3465.0      0.96964    
    3466.0      0.96967    
    3467.0      0.96969    
    3468.0      0.96971    
    3469.0      0.96974    
    3470.0      0.96976    
    3471.0      0.96978    
    3472.0      0.96980    
    3473.0      0.96983    
    3474.0      0.96985    
    3475.0      0.96987    
    3476.0      0.96990    
    3477.0      0.96992    
    3478.0      0.96994    
    3479.0      0.96997    
    3480.0      0.96999    
    3481.0      0.97001    
    3482.0      0.97004    
    3483.0      0.97006    
    3484.0      0.97008    
    3485.0      0.97010    
    3486.0      0.97013    
    3487.0      0.97015    
    3488.0      0.97017    
    3489.0      0.97020    
    3490.0      0.97022    
    3491.0      0.97024    
    3492.0      0.97026    
    3493.0      0.97029    
    3494.0      0.97031    
    3495.0      0.97033    
    3496.0      0.97035    
    3497.0      0.97038    
    3498.0      0.97040    
    3499.0      0.97042    
    3500.0      0.97044    
    3501.0      0.97047    
    3502.0      0.97049    
    3503.0      0.97051    
    3504.0      0.97053    
    3505.0      0.97056    
    3506.0      0.97058    
    3507.0      0.97060    
    3508.0      0.97062    
    3509.0      0.97065    
    3510.0      0.97067    
    3511.0      0.97069    
    3512.0      0.97071    
    3513.0      0.97074    
    3514.0      0.97076    
    3515.0      0.97078    
    3516.0      0.97080    
    3517.0      0.97082    
    3518.0      0.97085    
    3519.0      0.97087    
    3520.0      0.97089    
    3521.0      0.97091    
    3522.0      0.97093    
    3523.0      0.97096    
    3524.0      0.97098    
    3525.0      0.97100    
    3526.0      0.97102    
    3527.0      0.97104    
    3528.0      0.97107    
    3529.0      0.97109    
    3530.0      0.97111    
    3531.0      0.97113    
    3532.0      0.97115    
    3533.0      0.97118    
    3534.0      0.97120    
    3535.0      0.97122    
    3536.0      0.97124    
    3537.0      0.97126    
    3538.0      0.97128    
    3539.0      0.97131    
    3540.0      0.97133    
    3541.0      0.97135    
    3542.0      0.97137    
    3543.0      0.97139    
    3544.0      0.97141    
    3545.0      0.97144    
    3546.0      0.97146    
    3547.0      0.97148    
    3548.0      0.97150    
    3549.0      0.97152    
    3550.0      0.97154    
    3551.0      0.97156    
    3552.0      0.97159    
    3553.0      0.97161    
    3554.0      0.97163    
    3555.0      0.97165    
    3556.0      0.97167    
    3557.0      0.97169    
    3558.0      0.97171    
    3559.0      0.97173    
    3560.0      0.97176    
    3561.0      0.97178    
    3562.0      0.97180    
    3563.0      0.97182    
    3564.0      0.97184    
    3565.0      0.97186    
    3566.0      0.97188    
    3567.0      0.97190    
    3568.0      0.97192    
    3569.0      0.97195    
    3570.0      0.97197    
    3571.0      0.97199    
    3572.0      0.97201    
    3573.0      0.97203    
    3574.0      0.97205    
    3575.0      0.97207    
    3576.0      0.97209    
    3577.0      0.97211    
    3578.0      0.97213    
    3579.0      0.97215    
    3580.0      0.97218    
    3581.0      0.97220    
    3582.0      0.97222    
    3583.0      0.97224    
    3584.0      0.97226    
    3585.0      0.97228    
    3586.0      0.97230    
    3587.0      0.97232    
    3588.0      0.97234    
    3589.0      0.97236    
    3590.0      0.97238    
    3591.0      0.97240    
    3592.0      0.97242    
    3593.0      0.97244    
    3594.0      0.97246    
    3595.0      0.97248    
    3596.0      0.97251    
    3597.0      0.97253    
    3598.0      0.97255    
    3599.0      0.97257    
    3600.0      0.97259    
    3601.0      0.97261    
    3602.0      0.97263    
    3603.0      0.97265    
    3604.0      0.97267    
    3605.0      0.97269    
    3606.0      0.97271    
    3607.0      0.97273    
    3608.0      0.97275    
    3609.0      0.97277    
    3610.0      0.97279    
    3611.0      0.97281    
    3612.0      0.97283    
    3613.0      0.97285    
    3614.0      0.97287    
    3615.0      0.97289    
    3616.0      0.97291    
    3617.0      0.97293    
    3618.0      0.97295    
    3619.0      0.97297    
    3620.0      0.97299    
    3621.0      0.97301    
    3622.0      0.97303    
    3623.0      0.97305    
    3624.0      0.97307    
    3625.0      0.97309    
    3626.0      0.97311    
    3627.0      0.97313    
    3628.0      0.97315    
    3629.0      0.97317    
    3630.0      0.97319    
    3631.0      0.97321    
    3632.0      0.97323    
    3633.0      0.97325    
    3634.0      0.97327    
    3635.0      0.97329    
    3636.0      0.97331    
    3637.0      0.97333    
    3638.0      0.97335    
    3639.0      0.97337    
    3640.0      0.97339    
    3641.0      0.97340    
    3642.0      0.97342    
    3643.0      0.97344    
    3644.0      0.97346    
    3645.0      0.97348    
    3646.0      0.97350    
    3647.0      0.97352    
    3648.0      0.97354    
    3649.0      0.97356    
    3650.0      0.97358    
    3651.0      0.97360    
    3652.0      0.97362    
    3653.0      0.97364    
    3654.0      0.97366    
    3655.0      0.97368    
    3656.0      0.97370    
    3657.0      0.97371    
    3658.0      0.97373    
    3659.0      0.97375    
    3660.0      0.97377    
    3661.0      0.97379    
    3662.0      0.97381    
    3663.0      0.97383    
    3664.0      0.97385    
    3665.0      0.97387    
    3666.0      0.97389    
    3667.0      0.97391    
    3668.0      0.97393    
    3669.0      0.97394    
    3670.0      0.97396    
    3671.0      0.97398    
    3672.0      0.97400    
    3673.0      0.97402    
    3674.0      0.97404    
    3675.0      0.97406    
    3676.0      0.97408    
    3677.0      0.97410    
    3678.0      0.97411    
    3679.0      0.97413    
    3680.0      0.97415    
    3681.0      0.97417    
    3682.0      0.97419    
    3683.0      0.97421    
    3684.0      0.97423    
    3685.0      0.97425    
    3686.0      0.97426    
    3687.0      0.97428    
    3688.0      0.97430    
    3689.0      0.97432    
    3690.0      0.97434    
    3691.0      0.97436    
    3692.0      0.97438    
    3693.0      0.97440    
    3694.0      0.97441    
    3695.0      0.97443    
    3696.0      0.97445    
    3697.0      0.97447    
    3698.0      0.97449    
    3699.0      0.97451    
    3700.0      0.97453    
    3701.0      0.97454    
    3702.0      0.97456    
    3703.0      0.97458    
    3704.0      0.97460    
    3705.0      0.97462    
    3706.0      0.97464    
    3707.0      0.97465    
    3708.0      0.97467    
    3709.0      0.97469    
    3710.0      0.97471    
    3711.0      0.97473    
    3712.0      0.97475    
    3713.0      0.97476    
    3714.0      0.97478    
    3715.0      0.97480    
    3716.0      0.97482    
    3717.0      0.97484    
    3718.0      0.97485    
    3719.0      0.97487    
    3720.0      0.97489    
    3721.0      0.97491    
    3722.0      0.97493    
    3723.0      0.97494    
    3724.0      0.97496    
    3725.0      0.97498    
    3726.0      0.97500    
    3727.0      0.97502    
    3728.0      0.97503    
    3729.0      0.97505    
    3730.0      0.97507    
    3731.0      0.97509    
    3732.0      0.97511    
    3733.0      0.97512    
    3734.0      0.97514    
    3735.0      0.97516    
    3736.0      0.97518    
    3737.0      0.97520    
    3738.0      0.97521    
    3739.0      0.97523    
    3740.0      0.97525    
    3741.0      0.97527    
    3742.0      0.97528    
    3743.0      0.97530    
    3744.0      0.97532    
    3745.0      0.97534    
    3746.0      0.97535    
    3747.0      0.97537    
    3748.0      0.97539    
    3749.0      0.97541    
    3750.0      0.97543    
    3751.0      0.97544    
    3752.0      0.97546    
    3753.0      0.97548    
    3754.0      0.97550    
    3755.0      0.97551    
    3756.0      0.97553    
    3757.0      0.97555    
    3758.0      0.97557    
    3759.0      0.97558    
    3760.0      0.97560    
    3761.0      0.97562    
    3762.0      0.97564    
    3763.0      0.97565    
    3764.0      0.97567    
    3765.0      0.97569    
    3766.0      0.97570    
    3767.0      0.97572    
    3768.0      0.97574    
    3769.0      0.97576    
    3770.0      0.97577    
    3771.0      0.97579    
    3772.0      0.97581    
    3773.0      0.97583    
    3774.0      0.97584    
    3775.0      0.97586    
    3776.0      0.97588    
    3777.0      0.97589    
    3778.0      0.97591    
    3779.0      0.97593    
    3780.0      0.97595    
    3781.0      0.97596    
    3782.0      0.97598    
    3783.0      0.97600    
    3784.0      0.97601    
    3785.0      0.97603    
    3786.0      0.97605    
    3787.0      0.97606    
    3788.0      0.97608    
    3789.0      0.97610    
    3790.0      0.97612    
    3791.0      0.97613    
    3792.0      0.97615    
    3793.0      0.97617    
    3794.0      0.97618    
    3795.0      0.97620    
    3796.0      0.97622    
    3797.0      0.97623    
    3798.0      0.97625    
    3799.0      0.97627    
    3800.0      0.97628    
    3801.0      0.97630    
    3802.0      0.97632    
    3803.0      0.97633    
    3804.0      0.97635    
    3805.0      0.97637    
    3806.0      0.97638    
    3807.0      0.97640    
    3808.0      0.97642    
    3809.0      0.97643    
    3810.0      0.97645    
    3811.0      0.97647    
    3812.0      0.97648    
    3813.0      0.97650    
    3814.0      0.97652    
    3815.0      0.97653    
    3816.0      0.97655    
    3817.0      0.97657    
    3818.0      0.97658    
    3819.0      0.97660    
    3820.0      0.97662    
    3821.0      0.97663    
    3822.0      0.97665    
    3823.0      0.97667    
    3824.0      0.97668    
    3825.0      0.97670    
    3826.0      0.97671    
    3827.0      0.97673    
    3828.0      0.97675    
    3829.0      0.97676    
    3830.0      0.97678    
    3831.0      0.97680    
    3832.0      0.97681    
    3833.0      0.97683    
    3834.0      0.97684    
    3835.0      0.97686    
    3836.0      0.97688    
    3837.0      0.97689    
    3838.0      0.97691    
    3839.0      0.97693    
    3840.0      0.97694    
    3841.0      0.97696    
    3842.0      0.97697    
    3843.0      0.97699    
    3844.0      0.97701    
    3845.0      0.97702    
    3846.0      0.97704    
    3847.0      0.97705    
    3848.0      0.97707    
    3849.0      0.97709    
    3850.0      0.97710    
    3851.0      0.97712    
    3852.0      0.97713    
    3853.0      0.97715    
    3854.0      0.97717    
    3855.0      0.97718    
    3856.0      0.97720    
    3857.0      0.97721    
    3858.0      0.97723    
    3859.0      0.97725    
    3860.0      0.97726    
    3861.0      0.97728    
    3862.0      0.97729    
    3863.0      0.97731    
    3864.0      0.97732    
    3865.0      0.97734    
    3866.0      0.97736    
    3867.0      0.97737    
    3868.0      0.97739    
    3869.0      0.97740    
    3870.0      0.97742    
    3871.0      0.97743    
    3872.0      0.97745    
    3873.0      0.97747    
    3874.0      0.97748    
    3875.0      0.97750    
    3876.0      0.97751    
    3877.0      0.97753    
    3878.0      0.97754    
    3879.0      0.97756    
    3880.0      0.97758    
    3881.0      0.97759    
    3882.0      0.97761    
    3883.0      0.97762    
    3884.0      0.97764    
    3885.0      0.97765    
    3886.0      0.97767    
    3887.0      0.97768    
    3888.0      0.97770    
    3889.0      0.97771    
    3890.0      0.97773    
    3891.0      0.97775    
    3892.0      0.97776    
    3893.0      0.97778    
    3894.0      0.97779    
    3895.0      0.97781    
    3896.0      0.97782    
    3897.0      0.97784    
    3898.0      0.97785    
    3899.0      0.97787    
    3900.0      0.97788    
    3901.0      0.97790    
    3902.0      0.97791    
    3903.0      0.97793    
    3904.0      0.97794    
    3905.0      0.97796    
    3906.0      0.97797    
    3907.0      0.97799    
    3908.0      0.97801    
    3909.0      0.97802    
    3910.0      0.97804    
    3911.0      0.97805    
    3912.0      0.97807    
    3913.0      0.97808    
    3914.0      0.97810    
    3915.0      0.97811    
    3916.0      0.97813    
    3917.0      0.97814    
    3918.0      0.97816    
    3919.0      0.97817    
    3920.0      0.97819    
    3921.0      0.97820    
    3922.0      0.97822    
    3923.0      0.97823    
    3924.0      0.97825    
    3925.0      0.97826    
    3926.0      0.97828    
    3927.0      0.97829    
    3928.0      0.97831    
    3929.0      0.97832    
    3930.0      0.97833    
    3931.0      0.97835    
    3932.0      0.97836    
    3933.0      0.97838    
    3934.0      0.97839    
    3935.0      0.97841    
    3936.0      0.97842    
    3937.0      0.97844    
    3938.0      0.97845    
    3939.0      0.97847    
    3940.0      0.97848    
    3941.0      0.97850    
    3942.0      0.97851    
    3943.0      0.97853    
    3944.0      0.97854    
    3945.0      0.97856    
    3946.0      0.97857    
    3947.0      0.97859    
    3948.0      0.97860    
    3949.0      0.97861    
    3950.0      0.97863    
    3951.0      0.97864    
    3952.0      0.97866    
    3953.0      0.97867    
    3954.0      0.97869    
    3955.0      0.97870    
    3956.0      0.97872    
    3957.0      0.97873    
    3958.0      0.97875    
    3959.0      0.97876    
    3960.0      0.97877    
    3961.0      0.97879    
    3962.0      0.97880    
    3963.0      0.97882    
    3964.0      0.97883    
    3965.0      0.97885    
    3966.0      0.97886    
    3967.0      0.97887    
    3968.0      0.97889    
    3969.0      0.97890    
    3970.0      0.97892    
    3971.0      0.97893    
    3972.0      0.97895    
    3973.0      0.97896    
    3974.0      0.97897    
    3975.0      0.97899    
    3976.0      0.97900    
    3977.0      0.97902    
    3978.0      0.97903    
    3979.0      0.97905    
    3980.0      0.97906    
    3981.0      0.97907    
    3982.0      0.97909    
    3983.0      0.97910    
    3984.0      0.97912    
    3985.0      0.97913    
    3986.0      0.97915    
    3987.0      0.97916    
    3988.0      0.97917    
    3989.0      0.97919    
    3990.0      0.97920    
    3991.0      0.97922    
    3992.0      0.97923    
    3993.0      0.97924    
    3994.0      0.97926    
    3995.0      0.97927    
    3996.0      0.97929    
    3997.0      0.97930    
    3998.0      0.97931    
    3999.0      0.97933    
    4000.0      0.97934    
    4001.0      0.97936    
    4002.0      0.97937    
    4003.0      0.97938    
    4004.0      0.97940    
    4005.0      0.97941    
    4006.0      0.97942    
    4007.0      0.97944    
    4008.0      0.97945    
    4009.0      0.97947    
    4010.0      0.97948    
    4011.0      0.97949    
    4012.0      0.97951    
    4013.0      0.97952    
    4014.0      0.97954    
    4015.0      0.97955    
    4016.0      0.97956    
    4017.0      0.97958    
    4018.0      0.97959    
    4019.0      0.97960    
    4020.0      0.97962    
    4021.0      0.97963    
    4022.0      0.97964    
    4023.0      0.97966    
    4024.0      0.97967    
    4025.0      0.97969    
    4026.0      0.97970    
    4027.0      0.97971    
    4028.0      0.97973    
    4029.0      0.97974    
    4030.0      0.97975    
    4031.0      0.97977    
    4032.0      0.97978    
    4033.0      0.97979    
    4034.0      0.97981    
    4035.0      0.97982    
    4036.0      0.97983    
    4037.0      0.97985    
    4038.0      0.97986    
    4039.0      0.97988    
    4040.0      0.97989    
    4041.0      0.97990    
    4042.0      0.97992    
    4043.0      0.97993    
    4044.0      0.97994    
    4045.0      0.97996    
    4046.0      0.97997    
    4047.0      0.97998    
    4048.0      0.98000    
    4049.0      0.98001    
    4050.0      0.98002    
    4051.0      0.98004    
    4052.0      0.98005    
    4053.0      0.98006    
    4054.0      0.98008    
    4055.0      0.98009    
    4056.0      0.98010    
    4057.0      0.98012    
    4058.0      0.98013    
    4059.0      0.98014    
    4060.0      0.98015    
    4061.0      0.98017    
    4062.0      0.98018    
    4063.0      0.98019    
    4064.0      0.98021    
    4065.0      0.98022    
    4066.0      0.98023    
    4067.0      0.98025    
    4068.0      0.98026    
    4069.0      0.98027    
    4070.0      0.98029    
    4071.0      0.98030    
    4072.0      0.98031    
    4073.0      0.98033    
    4074.0      0.98034    
    4075.0      0.98035    
    4076.0      0.98036    
    4077.0      0.98038    
    4078.0      0.98039    
    4079.0      0.98040    
    4080.0      0.98042    
    4081.0      0.98043    
    4082.0      0.98044    
    4083.0      0.98046    
    4084.0      0.98047    
    4085.0      0.98048    
    4086.0      0.98049    
    4087.0      0.98051    
    4088.0      0.98052    
    4089.0      0.98053    
    4090.0      0.98055    
    4091.0      0.98056    
    4092.0      0.98057    
    4093.0      0.98058    
    4094.0      0.98060    
    4095.0      0.98061    
    4096.0      0.98062    
    4097.0      0.98063    
    4098.0      0.98065    
    4099.0      0.98066    
    4100.0      0.98067    
    4101.0      0.98069    
    4102.0      0.98070    
    4103.0      0.98071    
    4104.0      0.98072    
    4105.0      0.98074    
    4106.0      0.98075    
    4107.0      0.98076    
    4108.0      0.98077    
    4109.0      0.98079    
    4110.0      0.98080    
    4111.0      0.98081    
    4112.0      0.98083    
    4113.0      0.98084    
    4114.0      0.98085    
    4115.0      0.98086    
    4116.0      0.98088    
    4117.0      0.98089    
    4118.0      0.98090    
    4119.0      0.98091    
    4120.0      0.98093    
    4121.0      0.98094    
    4122.0      0.98095    
    4123.0      0.98096    
    4124.0      0.98098    
    4125.0      0.98099    
    4126.0      0.98100    
    4127.0      0.98101    
    4128.0      0.98103    
    4129.0      0.98104    
    4130.0      0.98105    
    4131.0      0.98106    
    4132.0      0.98108    
    4133.0      0.98109    
    4134.0      0.98110    
    4135.0      0.98111    
    4136.0      0.98112    
    4137.0      0.98114    
    4138.0      0.98115    
    4139.0      0.98116    
    4140.0      0.98117    
    4141.0      0.98119    
    4142.0      0.98120    
    4143.0      0.98121    
    4144.0      0.98122    
    4145.0      0.98124    
    4146.0      0.98125    
    4147.0      0.98126    
    4148.0      0.98127    
    4149.0      0.98128    
    4150.0      0.98130    
    4151.0      0.98131    
    4152.0      0.98132    
    4153.0      0.98133    
    4154.0      0.98135    
    4155.0      0.98136    
    4156.0      0.98137    
    4157.0      0.98138    
    4158.0      0.98139    
    4159.0      0.98141    
    4160.0      0.98142    
    4161.0      0.98143    
    4162.0      0.98144    
    4163.0      0.98145    
    4164.0      0.98147    
    4165.0      0.98148    
    4166.0      0.98149    
    4167.0      0.98150    
    4168.0      0.98151    
    4169.0      0.98153    
    4170.0      0.98154    
    4171.0      0.98155    
    4172.0      0.98156    
    4173.0      0.98157    
    4174.0      0.98159    
    4175.0      0.98160    
    4176.0      0.98161    
    4177.0      0.98162    
    4178.0      0.98163    
    4179.0      0.98165    
    4180.0      0.98166    
    4181.0      0.98167    
    4182.0      0.98168    
    4183.0      0.98169    
    4184.0      0.98171    
    4185.0      0.98172    
    4186.0      0.98173    
    4187.0      0.98174    
    4188.0      0.98175    
    4189.0      0.98176    
    4190.0      0.98178    
    4191.0      0.98179    
    4192.0      0.98180    
    4193.0      0.98181    
    4194.0      0.98182    
    4195.0      0.98183    
    4196.0      0.98185    
    4197.0      0.98186    
    4198.0      0.98187    
    4199.0      0.98188    
    4200.0      0.98189    
    4201.0      0.98190    
    4202.0      0.98192    
    4203.0      0.98193    
    4204.0      0.98194    
    4205.0      0.98195    
    4206.0      0.98196    
    4207.0      0.98197    
    4208.0      0.98199    
    4209.0      0.98200    
    4210.0      0.98201    
    4211.0      0.98202    
    4212.0      0.98203    
    4213.0      0.98204    
    4214.0      0.98206    
    4215.0      0.98207    
    4216.0      0.98208    
    4217.0      0.98209    
    4218.0      0.98210    
    4219.0      0.98211    
    4220.0      0.98212    
    4221.0      0.98214    
    4222.0      0.98215    
    4223.0      0.98216    
    4224.0      0.98217    
    4225.0      0.98218    
    4226.0      0.98219    
    4227.0      0.98220    
    4228.0      0.98222    
    4229.0      0.98223    
    4230.0      0.98224    
    4231.0      0.98225    
    4232.0      0.98226    
    4233.0      0.98227    
    4234.0      0.98228    
    4235.0      0.98230    
    4236.0      0.98231    
    4237.0      0.98232    
    4238.0      0.98233    
    4239.0      0.98234    
    4240.0      0.98235    
    4241.0      0.98236    
    4242.0      0.98237    
    4243.0      0.98239    
    4244.0      0.98240    
    4245.0      0.98241    
    4246.0      0.98242    
    4247.0      0.98243    
    4248.0      0.98244    
    4249.0      0.98245    
    4250.0      0.98246    
    4251.0      0.98248    
    4252.0      0.98249    
    4253.0      0.98250    
    4254.0      0.98251    
    4255.0      0.98252    
    4256.0      0.98253    
    4257.0      0.98254    
    4258.0      0.98255    
    4259.0      0.98256    
    4260.0      0.98258    
    4261.0      0.98259    
    4262.0      0.98260    
    4263.0      0.98261    
    4264.0      0.98262    
    4265.0      0.98263    
    4266.0      0.98264    
    4267.0      0.98265    
    4268.0      0.98266    
    4269.0      0.98268    
    4270.0      0.98269    
    4271.0      0.98270    
    4272.0      0.98271    
    4273.0      0.98272    
    4274.0      0.98273    
    4275.0      0.98274    
    4276.0      0.98275    
    4277.0      0.98276    
    4278.0      0.98277    
    4279.0      0.98278    
    4280.0      0.98280    
    4281.0      0.98281    
    4282.0      0.98282    
    4283.0      0.98283    
    4284.0      0.98284    
    4285.0      0.98285    
    4286.0      0.98286    
    4287.0      0.98287    
    4288.0      0.98288    
    4289.0      0.98289    
    4290.0      0.98290    
    4291.0      0.98291    
    4292.0      0.98293    
    4293.0      0.98294    
    4294.0      0.98295    
    4295.0      0.98296    
    4296.0      0.98297    
    4297.0      0.98298    
    4298.0      0.98299    
    4299.0      0.98300    
    4300.0      0.98301    
    4301.0      0.98302    
    4302.0      0.98303    
    4303.0      0.98304    
    4304.0      0.98305    
    4305.0      0.98306    
    4306.0      0.98308    
    4307.0      0.98309    
    4308.0      0.98310    
    4309.0      0.98311    
    4310.0      0.98312    
    4311.0      0.98313    
    4312.0      0.98314    
    4313.0      0.98315    
    4314.0      0.98316    
    4315.0      0.98317    
    4316.0      0.98318    
    4317.0      0.98319    
    4318.0      0.98320    
    4319.0      0.98321    
    4320.0      0.98322    
    4321.0      0.98323    
    4322.0      0.98325    
    4323.0      0.98326    
    4324.0      0.98327    
    4325.0      0.98328    
    4326.0      0.98329    
    4327.0      0.98330    
    4328.0      0.98331    
    4329.0      0.98332    
    4330.0      0.98333    
    4331.0      0.98334    
    4332.0      0.98335    
    4333.0      0.98336    
    4334.0      0.98337    
    4335.0      0.98338    
    4336.0      0.98339    
    4337.0      0.98340    
    4338.0      0.98341    
    4339.0      0.98342    
    4340.0      0.98343    
    4341.0      0.98344    
    4342.0      0.98345    
    4343.0      0.98346    
    4344.0      0.98347    
    4345.0      0.98348    
    4346.0      0.98350    
    4347.0      0.98351    
    4348.0      0.98352    
    4349.0      0.98353    
    4350.0      0.98354    
    4351.0      0.98355    
    4352.0      0.98356    
    4353.0      0.98357    
    4354.0      0.98358    
    4355.0      0.98359    
    4356.0      0.98360    
    4357.0      0.98361    
    4358.0      0.98362    
    4359.0      0.98363    
    4360.0      0.98364    
    4361.0      0.98365    
    4362.0      0.98366    
    4363.0      0.98367    
    4364.0      0.98368    
    4365.0      0.98369    
    4366.0      0.98370    
    4367.0      0.98371    
    4368.0      0.98372    
    4369.0      0.98373    
    4370.0      0.98374    
    4371.0      0.98375    
    4372.0      0.98376    
    4373.0      0.98377    
    4374.0      0.98378    
    4375.0      0.98379    
    4376.0      0.98380    
    4377.0      0.98381    
    4378.0      0.98382    
    4379.0      0.98383    
    4380.0      0.98384    
    4381.0      0.98385    
    4382.0      0.98386    
    4383.0      0.98387    
    4384.0      0.98388    
    4385.0      0.98389    
    4386.0      0.98390    
    4387.0      0.98391    
    4388.0      0.98392    
    4389.0      0.98393    
    4390.0      0.98394    
    4391.0      0.98395    
    4392.0      0.98396    
    4393.0      0.98397    
    4394.0      0.98398    
    4395.0      0.98399    
    4396.0      0.98400    
    4397.0      0.98401    
    4398.0      0.98402    
    4399.0      0.98403    
    4400.0      0.98404    
    4401.0      0.98405    
    4402.0      0.98406    
    4403.0      0.98407    
    4404.0      0.98408    
    4405.0      0.98409    
    4406.0      0.98410    
    4407.0      0.98411    
    4408.0      0.98412    
    4409.0      0.98413    
    4410.0      0.98414    
    4411.0      0.98415    
    4412.0      0.98416    
    4413.0      0.98417    
    4414.0      0.98418    
    4415.0      0.98419    
    4416.0      0.98420    
    4417.0      0.98421    
    4418.0      0.98422    
    4419.0      0.98423    
    4420.0      0.98424    
    4421.0      0.98425    
    4422.0      0.98425    
    4423.0      0.98426    
    4424.0      0.98427    
    4425.0      0.98428    
    4426.0      0.98429    
    4427.0      0.98430    
    4428.0      0.98431    
    4429.0      0.98432    
    4430.0      0.98433    
    4431.0      0.98434    
    4432.0      0.98435    
    4433.0      0.98436    
    4434.0      0.98437    
    4435.0      0.98438    
    4436.0      0.98439    
    4437.0      0.98440    
    4438.0      0.98441    
    4439.0      0.98442    
    4440.0      0.98443    
    4441.0      0.98444    
    4442.0      0.98445    
    4443.0      0.98446    
    4444.0      0.98447    
    4445.0      0.98448    
    4446.0      0.98448    
    4447.0      0.98449    
    4448.0      0.98450    
    4449.0      0.98451    
    4450.0      0.98452    
    4451.0      0.98453    
    4452.0      0.98454    
    4453.0      0.98455    
    4454.0      0.98456    
    4455.0      0.98457    
    4456.0      0.98458    
    4457.0      0.98459    
    4458.0      0.98460    
    4459.0      0.98461    
    4460.0      0.98462    
    4461.0      0.98463    
    4462.0      0.98464    
    4463.0      0.98465    
    4464.0      0.98465    
    4465.0      0.98466    
    4466.0      0.98467    
    4467.0      0.98468    
    4468.0      0.98469    
    4469.0      0.98470    
    4470.0      0.98471    
    4471.0      0.98472    
    4472.0      0.98473    
    4473.0      0.98474    
    4474.0      0.98475    
    4475.0      0.98476    
    4476.0      0.98477    
    4477.0      0.98478    
    4478.0      0.98478    
    4479.0      0.98479    
    4480.0      0.98480    
    4481.0      0.98481    
    4482.0      0.98482    
    4483.0      0.98483    
    4484.0      0.98484    
    4485.0      0.98485    
    4486.0      0.98486    
    4487.0      0.98487    
    4488.0      0.98488    
    4489.0      0.98489    
    4490.0      0.98490    
    4491.0      0.98490    
    4492.0      0.98491    
    4493.0      0.98492    
    4494.0      0.98493    
    4495.0      0.98494    
    4496.0      0.98495    
    4497.0      0.98496    
    4498.0      0.98497    
    4499.0      0.98498    
    4500.0      0.98499    
    4501.0      0.98500    
    4502.0      0.98500    
    4503.0      0.98501    
    4504.0      0.98502    
    4505.0      0.98503    
    4506.0      0.98504    
    4507.0      0.98505    
    4508.0      0.98506    
    4509.0      0.98507    
    4510.0      0.98508    
    4511.0      0.98509    
    4512.0      0.98510    
    4513.0      0.98510    
    4514.0      0.98511    
    4515.0      0.98512    
    4516.0      0.98513    
    4517.0      0.98514    
    4518.0      0.98515    
    4519.0      0.98516    
    4520.0      0.98517    
    4521.0      0.98518    
    4522.0      0.98518    
    4523.0      0.98519    
    4524.0      0.98520    
    4525.0      0.98521    
    4526.0      0.98522    
    4527.0      0.98523    
    4528.0      0.98524    
    4529.0      0.98525    
    4530.0      0.98526    
    4531.0      0.98526    
    4532.0      0.98527    
    4533.0      0.98528    
    4534.0      0.98529    
    4535.0      0.98530    
    4536.0      0.98531    
    4537.0      0.98532    
    4538.0      0.98533    
    4539.0      0.98534    
    4540.0      0.98534    
    4541.0      0.98535    
    4542.0      0.98536    
    4543.0      0.98537    
    4544.0      0.98538    
    4545.0      0.98539    
    4546.0      0.98540    
    4547.0      0.98541    
    4548.0      0.98541    
    4549.0      0.98542    
    4550.0      0.98543    
    4551.0      0.98544    
    4552.0      0.98545    
    4553.0      0.98546    
    4554.0      0.98547    
    4555.0      0.98548    
    4556.0      0.98548    
    4557.0      0.98549    
    4558.0      0.98550    
    4559.0      0.98551    
    4560.0      0.98552    
    4561.0      0.98553    
    4562.0      0.98554    
    4563.0      0.98554    
    4564.0      0.98555    
    4565.0      0.98556    
    4566.0      0.98557    
    4567.0      0.98558    
    4568.0      0.98559    
    4569.0      0.98560    
    4570.0      0.98560    
    4571.0      0.98561    
    4572.0      0.98562    
    4573.0      0.98563    
    4574.0      0.98564    
    4575.0      0.98565    
    4576.0      0.98566    
    4577.0      0.98566    
    4578.0      0.98567    
    4579.0      0.98568    
    4580.0      0.98569    
    4581.0      0.98570    
    4582.0      0.98571    
    4583.0      0.98572    
    4584.0      0.98572    
    4585.0      0.98573    
    4586.0      0.98574    
    4587.0      0.98575    
    4588.0      0.98576    
    4589.0      0.98577    
    4590.0      0.98578    
    4591.0      0.98578    
    4592.0      0.98579    
    4593.0      0.98580    
    4594.0      0.98581    
    4595.0      0.98582    
    4596.0      0.98583    
    4597.0      0.98583    
    4598.0      0.98584    
    4599.0      0.98585    
    4600.0      0.98586    
    4601.0      0.98587    
    4602.0      0.98588    
    4603.0      0.98588    
    4604.0      0.98589    
    4605.0      0.98590    
    4606.0      0.98591    
    4607.0      0.98592    
    4608.0      0.98593    
    4609.0      0.98593    
    4610.0      0.98594    
    4611.0      0.98595    
    4612.0      0.98596    
    4613.0      0.98597    
    4614.0      0.98598    
    4615.0      0.98598    
    4616.0      0.98599    
    4617.0      0.98600    
    4618.0      0.98601    
    4619.0      0.98602    
    4620.0      0.98603    
    4621.0      0.98603    
    4622.0      0.98604    
    4623.0      0.98605    
    4624.0      0.98606    
    4625.0      0.98607    
    4626.0      0.98608    
    4627.0      0.98608    
    4628.0      0.98609    
    4629.0      0.98610    
    4630.0      0.98611    
    4631.0      0.98612    
    4632.0      0.98612    
    4633.0      0.98613    
    4634.0      0.98614    
    4635.0      0.98615    
    4636.0      0.98616    
    4637.0      0.98617    
    4638.0      0.98617    
    4639.0      0.98618    
    4640.0      0.98619    
    4641.0      0.98620    
    4642.0      0.98621    
    4643.0      0.98621    
    4644.0      0.98622    
    4645.0      0.98623    
    4646.0      0.98624    
    4647.0      0.98625    
    4648.0      0.98625    
    4649.0      0.98626    
    4650.0      0.98627    
    4651.0      0.98628    
    4652.0      0.98629    
    4653.0      0.98630    
    4654.0      0.98630    
    4655.0      0.98631    
    4656.0      0.98632    
    4657.0      0.98633    
    4658.0      0.98634    
    4659.0      0.98634    
    4660.0      0.98635    
    4661.0      0.98636    
    4662.0      0.98637    
    4663.0      0.98638    
    4664.0      0.98638    
    4665.0      0.98639    
    4666.0      0.98640    
    4667.0      0.98641    
    4668.0      0.98642    
    4669.0      0.98642    
    4670.0      0.98643    
    4671.0      0.98644    
    4672.0      0.98645    
    4673.0      0.98646    
    4674.0      0.98646    
    4675.0      0.98647    
    4676.0      0.98648    
    4677.0      0.98649    
    4678.0      0.98649    
    4679.0      0.98650    
    4680.0      0.98651    
    4681.0      0.98652    
    4682.0      0.98653    
    4683.0      0.98653    
    4684.0      0.98654    
    4685.0      0.98655    
    4686.0      0.98656    
    4687.0      0.98657    
    4688.0      0.98657    
    4689.0      0.98658    
    4690.0      0.98659    
    4691.0      0.98660    
    4692.0      0.98660    
    4693.0      0.98661    
    4694.0      0.98662    
    4695.0      0.98663    
    4696.0      0.98664    
    4697.0      0.98664    
    4698.0      0.98665    
    4699.0      0.98666    
    4700.0      0.98667    
    4701.0      0.98667    
    4702.0      0.98668    
    4703.0      0.98669    
    4704.0      0.98670    
    4705.0      0.98671    
    4706.0      0.98671    
    4707.0      0.98672    
    4708.0      0.98673    
    4709.0      0.98674    
    4710.0      0.98674    
    4711.0      0.98675    
    4712.0      0.98676    
    4713.0      0.98677    
    4714.0      0.98677    
    4715.0      0.98678    
    4716.0      0.98679    
    4717.0      0.98680    
    4718.0      0.98681    
    4719.0      0.98681    
    4720.0      0.98682    
    4721.0      0.98683    
    4722.0      0.98684    
    4723.0      0.98684    
    4724.0      0.98685    
    4725.0      0.98686    
    4726.0      0.98687    
    4727.0      0.98687    
    4728.0      0.98688    
    4729.0      0.98689    
    4730.0      0.98690    
    4731.0      0.98690    
    4732.0      0.98691    
    4733.0      0.98692    
    4734.0      0.98693    
    4735.0      0.98693    
    4736.0      0.98694    
    4737.0      0.98695    
    4738.0      0.98696    
    4739.0      0.98696    
    4740.0      0.98697    
    4741.0      0.98698    
    4742.0      0.98699    
    4743.0      0.98699    
    4744.0      0.98700    
    4745.0      0.98701    
    4746.0      0.98702    
    4747.0      0.98702    
    4748.0      0.98703    
    4749.0      0.98704    
    4750.0      0.98705    
    4751.0      0.98705    
    4752.0      0.98706    
    4753.0      0.98707    
    4754.0      0.98708    
    4755.0      0.98708    
    4756.0      0.98709    
    4757.0      0.98710    
    4758.0      0.98711    
    4759.0      0.98711    
    4760.0      0.98712    
    4761.0      0.98713    
    4762.0      0.98714    
    4763.0      0.98714    
    4764.0      0.98715    
    4765.0      0.98716    
    4766.0      0.98717    
    4767.0      0.98717    
    4768.0      0.98718    
    4769.0      0.98719    
    4770.0      0.98719    
    4771.0      0.98720    
    4772.0      0.98721    
    4773.0      0.98722    
    4774.0      0.98722    
    4775.0      0.98723    
    4776.0      0.98724    
    4777.0      0.98725    
    4778.0      0.98725    
    4779.0      0.98726    
    4780.0      0.98727    
    4781.0      0.98728    
    4782.0      0.98728    
    4783.0      0.98729    
    4784.0      0.98730    
    4785.0      0.98730    
    4786.0      0.98731    
    4787.0      0.98732    
    4788.0      0.98733    
    4789.0      0.98733    
    4790.0      0.98734    
    4791.0      0.98735    
    4792.0      0.98736    
    4793.0      0.98736    
    4794.0      0.98737    
    4795.0      0.98738    
    4796.0      0.98738    
    4797.0      0.98739    
    4798.0      0.98740    
    4799.0      0.98741    
    4800.0      0.98741    
    4801.0      0.98742    
    4802.0      0.98743    
    4803.0      0.98743    
    4804.0      0.98744    
    4805.0      0.98745    
    4806.0      0.98746    
    4807.0      0.98746    
    4808.0      0.98747    
    4809.0      0.98748    
    4810.0      0.98748    
    4811.0      0.98749    
    4812.0      0.98750    
    4813.0      0.98751    
    4814.0      0.98751    
    4815.0      0.98752    
    4816.0      0.98753    
    4817.0      0.98753    
    4818.0      0.98754    
    4819.0      0.98755    
    4820.0      0.98756    
    4821.0      0.98756    
    4822.0      0.98757    
    4823.0      0.98758    
    4824.0      0.98758    
    4825.0      0.98759    
    4826.0      0.98760    
    4827.0      0.98760    
    4828.0      0.98761    
    4829.0      0.98762    
    4830.0      0.98763    
    4831.0      0.98763    
    4832.0      0.98764    
    4833.0      0.98765    
    4834.0      0.98765    
    4835.0      0.98766    
    4836.0      0.98767    
    4837.0      0.98767    
    4838.0      0.98768    
    4839.0      0.98769    
    4840.0      0.98770    
    4841.0      0.98770    
    4842.0      0.98771    
    4843.0      0.98772    
    4844.0      0.98772    
    4845.0      0.98773    
    4846.0      0.98774    
    4847.0      0.98774    
    4848.0      0.98775    
    4849.0      0.98776    
    4850.0      0.98777    
    4851.0      0.98777    
    4852.0      0.98778    
    4853.0      0.98779    
    4854.0      0.98779    
    4855.0      0.98780    
    4856.0      0.98781    
    4857.0      0.98781    
    4858.0      0.98782    
    4859.0      0.98783    
    4860.0      0.98783    
    4861.0      0.98784    
    4862.0      0.98785    
    4863.0      0.98785    
    4864.0      0.98786    
    4865.0      0.98787    
    4866.0      0.98788    
    4867.0      0.98788    
    4868.0      0.98789    
    4869.0      0.98790    
    4870.0      0.98790    
    4871.0      0.98791    
    4872.0      0.98792    
    4873.0      0.98792    
    4874.0      0.98793    
    4875.0      0.98794    
    4876.0      0.98794    
    4877.0      0.98795    
    4878.0      0.98796    
    4879.0      0.98796    
    4880.0      0.98797    
    4881.0      0.98798    
    4882.0      0.98798    
    4883.0      0.98799    
    4884.0      0.98800    
    4885.0      0.98800    
    4886.0      0.98801    
    4887.0      0.98802    
    4888.0      0.98802    
    4889.0      0.98803    
    4890.0      0.98804    
    4891.0      0.98804    
    4892.0      0.98805    
    4893.0      0.98806    
    4894.0      0.98806    
    4895.0      0.98807    
    4896.0      0.98808    
    4897.0      0.98808    
    4898.0      0.98809    
    4899.0      0.98810    
    4900.0      0.98810    
    4901.0      0.98811    
    4902.0      0.98812    
    4903.0      0.98812    
    4904.0      0.98813    
    4905.0      0.98814    
    4906.0      0.98814    
    4907.0      0.98815    
    4908.0      0.98816    
    4909.0      0.98816    
    4910.0      0.98817    
    4911.0      0.98818    
    4912.0      0.98818    
    4913.0      0.98819    
    4914.0      0.98820    
    4915.0      0.98820    
    4916.0      0.98821    
    4917.0      0.98822    
    4918.0      0.98822    
    4919.0      0.98823    
    4920.0      0.98824    
    4921.0      0.98824    
    4922.0      0.98825    
    4923.0      0.98826    
    4924.0      0.98826    
    4925.0      0.98827    
    4926.0      0.98828    
    4927.0      0.98828    
    4928.0      0.98829    
    4929.0      0.98830    
    4930.0      0.98830    
    4931.0      0.98831    
    4932.0      0.98832    
    4933.0      0.98832    
    4934.0      0.98833    
    4935.0      0.98834    
    4936.0      0.98834    
    4937.0      0.98835    
    4938.0      0.98835    
    4939.0      0.98836    
    4940.0      0.98837    
    4941.0      0.98837    
    4942.0      0.98838    
    4943.0      0.98839    
    4944.0      0.98839    
    4945.0      0.98840    
    4946.0      0.98841    
    4947.0      0.98841    
    4948.0      0.98842    
    4949.0      0.98843    
    4950.0      0.98843    
    4951.0      0.98844    
    4952.0      0.98844    
    4953.0      0.98845    
    4954.0      0.98846    
    4955.0      0.98846    
    4956.0      0.98847    
    4957.0      0.98848    
    4958.0      0.98848    
    4959.0      0.98849    
    4960.0      0.98850    
    4961.0      0.98850    
    4962.0      0.98851    
    4963.0      0.98852    
    4964.0      0.98852    
    4965.0      0.98853    
    4966.0      0.98853    
    4967.0      0.98854    
    4968.0      0.98855    
    4969.0      0.98855    
    4970.0      0.98856    
    4971.0      0.98857    
    4972.0      0.98857    
    4973.0      0.98858    
    4974.0      0.98858    
    4975.0      0.98859    
    4976.0      0.98860    
    4977.0      0.98860    
    4978.0      0.98861    
    4979.0      0.98862    
    4980.0      0.98862    
    4981.0      0.98863    
    4982.0      0.98864    
    4983.0      0.98864    
    4984.0      0.98865    
    4985.0      0.98865    
    4986.0      0.98866    
    4987.0      0.98867    
    4988.0      0.98867    
    4989.0      0.98868    
    4990.0      0.98869    
    4991.0      0.98869    
    4992.0      0.98870    
    4993.0      0.98870    
    4994.0      0.98871    
    4995.0      0.98872    
    4996.0      0.98872    
    4997.0      0.98873    
    4998.0      0.98873    
    4999.0      0.98874    
    5000.0      0.98875  
    5005.0      0.98878    
    5010.0      0.98881    
    5015.0      0.98884    
    5020.0      0.98887    
    5025.0      0.98890    
    5030.0      0.98893    
    5035.0      0.98896    
    5040.0      0.98899    
    5045.0      0.98902    
    5050.0      0.98905    
    5055.0      0.98908    
    5060.0      0.98911    
    5065.0      0.98914    
    5070.0      0.98917    
    5075.0      0.98920    
    5080.0      0.98923    
    5085.0      0.98926    
    5090.0      0.98929    
    5095.0      0.98932    
    5100.0      0.98934    
    5105.0      0.98937    
    5110.0      0.98940    
    5115.0      0.98943    
    5120.0      0.98946    
    5125.0      0.98949    
    5130.0      0.98952    
    5135.0      0.98954    
    5140.0      0.98957    
    5145.0      0.98960    
    5150.0      0.98963    
    5155.0      0.98965    
    5160.0      0.98968    
    5165.0      0.98971    
    5170.0      0.98974    
    5175.0      0.98976    
    5180.0      0.98979    
    5185.0      0.98982    
    5190.0      0.98985    
    5195.0      0.98987    
    5200.0      0.98990    
    5205.0      0.98993    
    5210.0      0.98995    
    5215.0      0.98998    
    5220.0      0.99001    
    5225.0      0.99003    
    5230.0      0.99006    
    5235.0      0.99009    
    5240.0      0.99011    
    5245.0      0.99014    
    5250.0      0.99016    
    5255.0      0.99019    
    5260.0      0.99022    
    5265.0      0.99024    
    5270.0      0.99027    
    5275.0      0.99029    
    5280.0      0.99032    
    5285.0      0.99034    
    5290.0      0.99037    
    5295.0      0.99039    
    5300.0      0.99042    
    5305.0      0.99044    
    5310.0      0.99047    
    5315.0      0.99049    
    5320.0      0.99052    
    5325.0      0.99054    
    5330.0      0.99057    
    5335.0      0.99059    
    5340.0      0.99062    
    5345.0      0.99064    
    5350.0      0.99066    
    5355.0      0.99069    
    5360.0      0.99071    
    5365.0      0.99074    
    5370.0      0.99076    
    5375.0      0.99078    
    5380.0      0.99081    
    5385.0      0.99083    
    5390.0      0.99085    
    5395.0      0.99088    
    5400.0      0.99090    
    5405.0      0.99092    
    5410.0      0.99095    
    5415.0      0.99097    
    5420.0      0.99099    
    5425.0      0.99102    
    5430.0      0.99104    
    5435.0      0.99106    
    5440.0      0.99109    
    5445.0      0.99111    
    5450.0      0.99113    
    5455.0      0.99115    
    5460.0      0.99118    
    5465.0      0.99120    
    5470.0      0.92876    
    5475.0      0.92891    
    5480.0      0.92906    
    5485.0      0.92921    
    5490.0      0.92936    
    5495.0      0.92951    
    5500.0      0.92966    
    5505.0      0.92981    
    5510.0      0.92996    
    5515.0      0.93011    
    5520.0      0.93026    
    5525.0      0.93040    
    5530.0      0.93055    
    5535.0      0.93070    
    5540.0      0.93084    
    5545.0      0.93099    
    5550.0      0.93114    
    5555.0      0.93128    
    5560.0      0.93142    
    5565.0      0.93157    
    5570.0      0.93171    
    5575.0      0.93186    
    5580.0      0.93200    
    5585.0      0.93214    
    5590.0      0.93229    
    5595.0      0.93243    
    5600.0      0.93257    
    5605.0      0.93271    
    5610.0      0.93285    
    5615.0      0.93299    
    5620.0      0.93313    
    5625.0      0.93327    
    5630.0      0.93341    
    5635.0      0.93355    
    5640.0      0.93369    
    5645.0      0.93383    
    5650.0      0.93397    
    5655.0      0.93410    
    5660.0      0.93424    
    5665.0      0.93438    
    5670.0      0.93452    
    5675.0      0.93465    
    5680.0      0.93479    
    5685.0      0.93492    
    5690.0      0.93506    
    5695.0      0.93519    
    5700.0      0.93533    
    5705.0      0.93546    
    5710.0      0.93560    
    5715.0      0.93573    
    5720.0      0.93586    
    5725.0      0.93600    
    5730.0      0.93613    
    5735.0      0.93626    
    5740.0      0.93639    
    5745.0      0.93652    
    5750.0      0.93666    
    5755.0      0.93679    
    5760.0      0.93692    
    5765.0      0.93705    
    5770.0      0.93718    
    5775.0      0.93731    
    5780.0      0.93744    
    5785.0      0.93757    
    5790.0      0.93769    
    5795.0      0.93782    
    5800.0      0.93795    
    5805.0      0.93808    
    5810.0      0.93821    
    5815.0      0.93833    
    5820.0      0.93846    
    5825.0      0.93858    
    5830.0      0.93871    
    5835.0      0.93884    
    5840.0      0.93896    
    5845.0      0.93909    
    5850.0      0.93921    
    5855.0      0.93934    
    5860.0      0.93946    
    5865.0      0.93958    
    5870.0      0.93971    
    5875.0      0.93983    
    5880.0      0.93995    
    5885.0      0.94008    
    5890.0      0.94020    
    5895.0      0.94032    
    5900.0      0.94044    
    5905.0      0.94056    
    5910.0      0.94068    
    5915.0      0.94080    
    5920.0      0.94092    
    5925.0      0.94104    
    5930.0      0.94116    
    5935.0      0.94128    
    5940.0      0.94140    
    5945.0      0.94152    
    5950.0      0.94164    
    5955.0      0.94176    
    5960.0      0.94188    
    5965.0      0.94199    
    5970.0      0.94211    
    5975.0      0.94223    
    5980.0      0.94234    
    5985.0      0.94246    
    5990.0      0.94258    
    5995.0      0.94269    
    6000.0      0.94281    
    6005.0      0.94292    
    6010.0      0.94304    
    6015.0      0.94315    
    6020.0      0.94327    
    6025.0      0.94338    
    6030.0      0.94349    
    6035.0      0.94361    
    6040.0      0.94372    
    6045.0      0.94383    
    6050.0      0.94395    
    6055.0      0.94406    
    6060.0      0.94417    
    6065.0      0.94428    
    6070.0      0.94439    
    6075.0      0.94451    
    6080.0      0.94462    
    6085.0      0.94473    
    6090.0      0.94484    
    6095.0      0.94495    
    6100.0      0.94506    
    6105.0      0.94517    
    6110.0      0.94528    
    6115.0      0.94539    
    6120.0      0.94549    
    6125.0      0.94560    
    6130.0      0.94571    
    6135.0      0.94582    
    6140.0      0.94593    
    6145.0      0.94603    
    6150.0      0.94614    
    6155.0      0.94625    
    6160.0      0.94636    
    6165.0      0.94646    
    6170.0      0.94657    
    6175.0      0.94667    
    6180.0      0.94678    
    6185.0      0.94688    
    6190.0      0.94699    
    6195.0      0.94709    
    6200.0      0.94720    
    6205.0      0.94730    
    6210.0      0.94741    
    6215.0      0.94751    
    6220.0      0.94761    
    6225.0      0.94772    
    6230.0      0.94782    
    6235.0      0.94792    
    6240.0      0.94802    
    6245.0      0.94813    
    6250.0      0.94823    
    6255.0      0.94833    
    6260.0      0.94843    
    6265.0      0.94853    
    6270.0      0.94863    
    6275.0      0.94874    
    6280.0      0.94884    
    6285.0      0.94894    
    6290.0      0.94904    
    6295.0      0.94914    
    6300.0      0.94923    
    6305.0      0.94933    
    6310.0      0.94943    
    6315.0      0.94953    
    6320.0      0.94963    
    6325.0      0.94973    
    6330.0      0.94983    
    6335.0      0.94992    
    6340.0      0.95002    
    6345.0      0.95012    
    6350.0      0.95022    
    6355.0      0.95031    
    6360.0      0.95041    
    6365.0      0.95051    
    6370.0      0.95060    
    6375.0      0.95070    
    6380.0      0.95079    
    6385.0      0.95089    
    6390.0      0.95098    
    6395.0      0.95108    
    6400.0      0.95117    
    6405.0      0.95127    
    6410.0      0.95136    
    6415.0      0.95145    
    6420.0      0.95155    
    6425.0      0.95164    
    6430.0      0.95174    
    6435.0      0.95183    
    6440.0      0.95192    
    6445.0      0.95201    
    6450.0      0.95211    
    6455.0      0.95220    
    6460.0      0.95229    
    6465.0      0.95238    
    6470.0      0.95247    
    6475.0      0.95257    
    6480.0      0.95266    
    6485.0      0.95275    
    6490.0      0.95284    
    6495.0      0.95293    
    6500.0      0.95302    
    6505.0      0.95311    
    6510.0      0.95320    
    6515.0      0.95329    
    6520.0      0.95338    
    6525.0      0.95347    
    6530.0      0.95355    
    6535.0      0.95364    
    6540.0      0.95373    
    6545.0      0.95382    
    6550.0      0.95391    
    6555.0      0.95400    
    6560.0      0.95408    
    6565.0      0.95417    
    6570.0      0.95426    
    6575.0      0.95434    
    6580.0      0.95443    
    6585.0      0.95452    
    6590.0      0.95460    
    6595.0      0.95469    
    6600.0      0.95478    
    6605.0      0.95486    
    6610.0      0.95495    
    6615.0      0.95503    
    6620.0      0.95512    
    6625.0      0.95520    
    6630.0      0.95529    
    6635.0      0.95537    
    6640.0      0.95546    
    6645.0      0.95554    
    6650.0      0.95562    
    6655.0      0.95571    
    6660.0      0.95579    
    6665.0      0.95587    
    6670.0      0.95596    
    6675.0      0.95604    
    6680.0      0.95612    
    6685.0      0.95621    
    6690.0      0.95629    
    6695.0      0.95637    
    6700.0      0.95645    
    6705.0      0.95653    
    6710.0      0.95661    
    6715.0      0.95670    
    6720.0      0.95678    
    6725.0      0.95686    
    6730.0      0.95694    
    6735.0      0.95702    
    6740.0      0.95710    
    6745.0      0.95718    
    6750.0      0.95726    
    6755.0      0.95734    
    6760.0      0.95742    
    6765.0      0.95750    
    6770.0      0.95758    
    6775.0      0.95766    
    6780.0      0.95773    
    6785.0      0.95781    
    6790.0      0.95789    
    6795.0      0.95797    
    6800.0      0.95805    
    6805.0      0.95813    
    6810.0      0.95820    
    6815.0      0.95828    
    6820.0      0.95836    
    6825.0      0.95843    
    6830.0      0.95851    
    6835.0      0.95859    
    6840.0      0.95866    
    6845.0      0.95874    
    6850.0      0.95882    
    6855.0      0.95889    
    6860.0      0.95897    
    6865.0      0.95904    
    6870.0      0.95912    
    6875.0      0.95920    
    6880.0      0.95927    
    6885.0      0.95935    
    6890.0      0.95942    
    6895.0      0.95950    
    6900.0      0.95957    
    6905.0      0.95964    
    6910.0      0.95972    
    6915.0      0.95979    
    6920.0      0.95987    
    6925.0      0.95994    
    6930.0      0.96001    
    6935.0      0.96009    
    6940.0      0.96016    
    6945.0      0.96023    
    6950.0      0.96030    
    6955.0      0.96038    
    6960.0      0.96045    
    6965.0      0.96052    
    6970.0      0.96059    
    6975.0      0.96067    
    6980.0      0.96074    
    6985.0      0.96081    
    6990.0      0.96088    
    6995.0      0.96095    
    7000.0      0.96102    
    7005.0      0.96109    
    7010.0      0.96116    
    7015.0      0.96123    
    7020.0      0.96131    
    7025.0      0.96138    
    7030.0      0.96145    
    7035.0      0.96152    
    7040.0      0.96158    
    7045.0      0.96165    
    7050.0      0.96172    
    7055.0      0.96179    
    7060.0      0.96186    
    7065.0      0.96193    
    7070.0      0.96200    
    7075.0      0.96207    
    7080.0      0.96214    
    7085.0      0.96220    
    7090.0      0.96227    
    7095.0      0.96234    
    7100.0      0.96241    
    7105.0      0.96248    
    7110.0      0.96254    
    7115.0      0.96261    
    7120.0      0.96268    
    7125.0      0.96275    
    7130.0      0.96281    
    7135.0      0.96288    
    7140.0      0.96295    
    7145.0      0.96301    
    7150.0      0.96308    
    7155.0      0.96314    
    7160.0      0.96321    
    7165.0      0.96328    
    7170.0      0.96334    
    7175.0      0.96341    
    7180.0      0.96347    
    7185.0      0.96354    
    7190.0      0.96360    
    7195.0      0.96367    
    7200.0      0.96373    
    7205.0      0.96380    
    7210.0      0.96386    
    7215.0      0.96393    
    7220.0      0.96399    
    7225.0      0.96405    
    7230.0      0.96412    
    7235.0      0.96418    
    7240.0      0.96425    
    7245.0      0.96431    
    7250.0      0.96437    
    7255.0      0.96443    
    7260.0      0.96450    
    7265.0      0.96456    
    7270.0      0.96462    
    7275.0      0.96469    
    7280.0      0.96475    
    7285.0      0.96481    
    7290.0      0.96487    
    7295.0      0.96493    
    7300.0      0.96500    
    7305.0      0.96506    
    7310.0      0.96512    
    7315.0      0.96518    
    7320.0      0.96524    
    7325.0      0.96530    
    7330.0      0.96536    
    7335.0      0.96543    
    7340.0      0.96549    
    7345.0      0.96555    
    7350.0      0.96561    
    7355.0      0.96567    
    7360.0      0.96573    
    7365.0      0.96579    
    7370.0      0.96585    
    7375.0      0.96591    
    7380.0      0.96597    
    7385.0      0.96603    
    7390.0      0.96609    
    7395.0      0.96615    
    7400.0      0.96620    
    7405.0      0.96626    
    7410.0      0.96632    
    7415.0      0.96638    
    7420.0      0.96644    
    7425.0      0.96650    
    7430.0      0.96656    
    7435.0      0.96661    
    7440.0      0.96667    
    7445.0      0.96673    
    7450.0      0.96679    
    7455.0      0.96685    
    7460.0      0.96690    
    7465.0      0.96696    
    7470.0      0.96702    
    7475.0      0.96708    
    7480.0      0.96713    
    7485.0      0.96719    
    7490.0      0.96725    
    7495.0      0.96730    
    7500.0      0.96736    
    7505.0      0.96742    
    7510.0      0.96747    
    7515.0      0.96753    
    7520.0      0.96758    
    7525.0      0.96764    
    7530.0      0.96770    
    7535.0      0.96775    
    7540.0      0.96781    
    7545.0      0.96786    
    7550.0      0.96792    
    7555.0      0.96797    
    7560.0      0.96803    
    7565.0      0.96808    
    7570.0      0.96814    
    7575.0      0.96819    
    7580.0      0.96825    
    7585.0      0.96830    
    7590.0      0.96835    
    7595.0      0.96841    
    7600.0      0.96846    
    7605.0      0.96852    
    7610.0      0.96857    
    7615.0      0.96862    
    7620.0      0.96868    
    7625.0      0.96873    
    7630.0      0.96879    
    7635.0      0.96884    
    7640.0      0.96889    
    7645.0      0.96894    
    7650.0      0.96900    
    7655.0      0.96905    
    7660.0      0.96910    
    7665.0      0.96915    
    7670.0      0.96921    
    7675.0      0.96926    
    7680.0      0.96931    
    7685.0      0.96936    
    7690.0      0.96942    
    7695.0      0.96947    
    7700.0      0.96952    
    7705.0      0.96957    
    7710.0      0.96962    
    7715.0      0.96967    
    7720.0      0.96973    
    7725.0      0.96978    
    7730.0      0.96983    
    7735.0      0.96988    
    7740.0      0.96993    
    7745.0      0.96998    
    7750.0      0.97003    
    7755.0      0.97008    
    7760.0      0.97013    
    7765.0      0.97018    
    7770.0      0.97023    
    7775.0      0.97028    
    7780.0      0.97033    
    7785.0      0.97038    
    7790.0      0.97043    
    7795.0      0.97048    
    7800.0      0.97053    
    7805.0      0.97058    
    7810.0      0.97063    
    7815.0      0.97068    
    7820.0      0.97073    
    7825.0      0.97078    
    7830.0      0.97083    
    7835.0      0.97087    
    7840.0      0.97092    
    7845.0      0.97097    
    7850.0      0.97102    
    7855.0      0.97107    
    7860.0      0.97112    
    7865.0      0.97116    
    7870.0      0.97121    
    7875.0      0.97126    
    7880.0      0.97131    
    7885.0      0.97136    
    7890.0      0.97140    
    7895.0      0.97145    
    7900.0      0.97150    
    7905.0      0.97155    
    7910.0      0.97159    
    7915.0      0.97164    
    7920.0      0.97169    
    7925.0      0.97173    
    7930.0      0.97178    
    7935.0      0.97183    
    7940.0      0.97187    
    7945.0      0.97192    
    7950.0      0.97197    
    7955.0      0.97201    
    7960.0      0.97206    
    7965.0      0.97211    
    7970.0      0.97215    
    7975.0      0.97220    
    7980.0      0.97224    
    7985.0      0.97229    
    7990.0      0.97233    
    7995.0      0.97238    
    8000.0      0.97243    
    8005.0      0.97247    
    8010.0      0.97252    
    8015.0      0.97256    
    8020.0      0.97261    
    8025.0      0.97265    
    8030.0      0.97270    
    8035.0      0.97274    
    8040.0      0.97279    
    8045.0      0.97283    
    8050.0      0.97287    
    8055.0      0.97292    
    8060.0      0.97296    
    8065.0      0.97301    
    8070.0      0.97305    
    8075.0      0.97310    
    8080.0      0.97314    
    8085.0      0.97318    
    8090.0      0.97323    
    8095.0      0.97327    
    8100.0      0.97331    
    8105.0      0.97336    
    8110.0      0.97340    
    8115.0      0.97344    
    8120.0      0.97349    
    8125.0      0.97353    
    8130.0      0.97357    
    8135.0      0.97362    
    8140.0      0.97366    
    8145.0      0.97370    
    8150.0      0.97374    
    8155.0      0.97379    
    8160.0      0.97383    
    8165.0      0.97387    
    8170.0      0.97391    
    8175.0      0.97396    
    8180.0      0.97400    
    8185.0      0.97404    
    8190.0      0.97408    
    8195.0      0.97412    
    8200.0      0.97417    
    8205.0      0.97421    
    8210.0      0.97425    
    8215.0      0.97429    
    8220.0      0.97433    
    8225.0      0.97437    
    8230.0      0.97441    
    8235.0      0.97445    
    8240.0      0.97450    
    8245.0      0.97454    
    8250.0      0.97458    
    8255.0      0.97462    
    8260.0      0.97466    
    8265.0      0.97470    
    8270.0      0.97474    
    8275.0      0.97478    
    8280.0      0.97482    
    8285.0      0.97486    
    8290.0      0.97490    
    8295.0      0.97494    
    8300.0      0.97498    
    8305.0      0.97502    
    8310.0      0.97506    
    8315.0      0.97510    
    8320.0      0.97514    
    8325.0      0.97518    
    8330.0      0.97522    
    8335.0      0.97526    
    8340.0      0.97530    
    8345.0      0.97534    
    8350.0      0.97538    
    8355.0      0.97542    
    8360.0      0.97546    
    8365.0      0.97549    
    8370.0      0.97553    
    8375.0      0.97557    
    8380.0      0.97561    
    8385.0      0.97565    
    8390.0      0.97569    
    8395.0      0.97573    
    8400.0      0.97577    
    8405.0      0.97580    
    8410.0      0.97584    
    8415.0      0.97588    
    8420.0      0.97592    
    8425.0      0.97596    
    8430.0      0.97599    
    8435.0      0.97603    
    8440.0      0.97607    
    8445.0      0.97611    
    8450.0      0.97614    
    8455.0      0.97618    
    8460.0      0.97622    
    8465.0      0.97626    
    8470.0      0.97629    
    8475.0      0.97633    
    8480.0      0.97637    
    8485.0      0.97641    
    8490.0      0.97644    
    8495.0      0.97648    
    8500.0      0.97652    
    8505.0      0.97655    
    8510.0      0.97659    
    8515.0      0.97663    
    8520.0      0.97666    
    8525.0      0.97670    
    8530.0      0.97674    
    8535.0      0.97677    
    8540.0      0.97681    
    8545.0      0.97685    
    8550.0      0.97688    
    8555.0      0.97692    
    8560.0      0.97695    
    8565.0      0.97699    
    8570.0      0.97702    
    8575.0      0.97706    
    8580.0      0.97710    
    8585.0      0.97713    
    8590.0      0.97717    
    8595.0      0.97720    
    8600.0      0.97724    
    8605.0      0.97727    
    8610.0      0.97731    
    8615.0      0.97734    
    8620.0      0.97738    
    8625.0      0.97741    
    8630.0      0.97745    
    8635.0      0.97748    
    8640.0      0.97752    
    8645.0      0.97755    
    8650.0      0.97759    
    8655.0      0.97762    
    8660.0      0.97766    
    8665.0      0.97769    
    8670.0      0.97773    
    8675.0      0.97776    
    8680.0      0.97779    
    8685.0      0.97783    
    8690.0      0.97786    
    8695.0      0.97790    
    8700.0      0.97793    
    8705.0      0.97796    
    8710.0      0.97800    
    8715.0      0.97803    
    8720.0      0.97807    
    8725.0      0.97810    
    8730.0      0.97813    
    8735.0      0.97817    
    8740.0      0.97820    
    8745.0      0.97823    
    8750.0      0.97827    
    8755.0      0.97830    
    8760.0      0.97833    
    8765.0      0.97837    
    8770.0      0.97840    
    8775.0      0.97843    
    8780.0      0.97847    
    8785.0      0.97850    
    8790.0      0.97853    
    8795.0      0.97856    
    8800.0      0.97860    
    8805.0      0.97863    
    8810.0      0.97866    
    8815.0      0.97869    
    8820.0      0.97873    
    8825.0      0.97876    
    8830.0      0.97879    
    8835.0      0.97882    
    8840.0      0.97886    
    8845.0      0.97889    
    8850.0      0.97892    
    8855.0      0.97895    
    8860.0      0.97898    
    8865.0      0.97902    
    8870.0      0.97905    
    8875.0      0.97908    
    8880.0      0.97911    
    8885.0      0.97914    
    8890.0      0.97917    
    8895.0      0.97920    
    8900.0      0.97924    
    8905.0      0.97927    
    8910.0      0.97930    
    8915.0      0.97933    
    8920.0      0.97936    
    8925.0      0.97939    
    8930.0      0.97942    
    8935.0      0.97945    
    8940.0      0.97948    
    8945.0      0.97952    
    8950.0      0.97955    
    8955.0      0.97958    
    8960.0      0.97961    
    8965.0      0.97964    
    8970.0      0.97967    
    8975.0      0.97970    
    8980.0      0.97973    
    8985.0      0.97976    
    8990.0      0.97979    
    8995.0      0.97982    
    9000.0      0.97985    
    9005.0      0.97988    
    9010.0      0.97991    
    9015.0      0.97994    
    9020.0      0.97997    
    9025.0      0.98000    
    9030.0      0.98003    
    9035.0      0.98006    
    9040.0      0.98009    
    9045.0      0.98012    
    9050.0      0.98015    
    9055.0      0.98018    
    9060.0      0.98021    
    9065.0      0.98024    
    9070.0      0.98027    
    9075.0      0.98030    
    9080.0      0.98033    
    9085.0      0.98035    
    9090.0      0.98038    
    9095.0      0.98041    
    9100.0      0.98044    
    9105.0      0.98047    
    9110.0      0.98050    
    9115.0      0.98053    
    9120.0      0.98056    
    9125.0      0.98059    
    9130.0      0.98061    
    9135.0      0.98064    
    9140.0      0.98067    
    9145.0      0.98070    
    9150.0      0.98073    
    9155.0      0.98076    
    9160.0      0.98079    
    9165.0      0.98081    
    9170.0      0.98084    
    9175.0      0.98087    
    9180.0      0.98090    
    9185.0      0.98093    
    9190.0      0.98096    
    9195.0      0.98098    
    9200.0      0.98101    
    9205.0      0.98104    
    9210.0      0.98107    
    9215.0      0.98109    
    9220.0      0.98112    
    9225.0      0.98115    
    9230.0      0.98118    
    9235.0      0.98120    
    9240.0      0.98123    
    9245.0      0.98126    
    9250.0      0.98129    
    9255.0      0.98131    
    9260.0      0.98134    
    9265.0      0.98137    
    9270.0      0.98140    
    9275.0      0.98142    
    9280.0      0.98145    
    9285.0      0.98148    
    9290.0      0.98150    
    9295.0      0.98153    
    9300.0      0.98156    
    9305.0      0.98158    
    9310.0      0.98161    
    9315.0      0.98164    
    9320.0      0.98167    
    9325.0      0.98169    
    9330.0      0.98172    
    9335.0      0.98174    
    9340.0      0.98177    
    9345.0      0.98180    
    9350.0      0.98182    
    9355.0      0.98185    
    9360.0      0.98188    
    9365.0      0.98190    
    9370.0      0.98193    
    9375.0      0.98196    
    9380.0      0.98198    
    9385.0      0.98201    
    9390.0      0.98203    
    9395.0      0.98206    
    9400.0      0.98208    
    9405.0      0.98211    
    9410.0      0.98214    
    9415.0      0.98216    
    9420.0      0.98219    
    9425.0      0.98221    
    9430.0      0.98224    
    9435.0      0.98226    
    9440.0      0.98229    
    9445.0      0.98232    
    9450.0      0.98234    
    9455.0      0.98237    
    9460.0      0.98239    
    9465.0      0.98242    
    9470.0      0.98244    
    9475.0      0.98247    
    9480.0      0.98249    
    9485.0      0.98252    
    9490.0      0.98254    
    9495.0      0.98257    
    9500.0      0.98259    
    9505.0      0.98262    
    9510.0      0.98264    
    9515.0      0.98267    
    9520.0      0.98269    
    9525.0      0.98272    
    9530.0      0.98274    
    9535.0      0.98277    
    9540.0      0.98279    
    9545.0      0.98281    
    9550.0      0.98284    
    9555.0      0.98286    
    9560.0      0.98289    
    9565.0      0.98291    
    9570.0      0.98294    
    9575.0      0.98296    
    9580.0      0.98298    
    9585.0      0.98301    
    9590.0      0.98303    
    9595.0      0.98306    
    9600.0      0.98308    
    9605.0      0.98310    
    9610.0      0.98313    
    9615.0      0.98315    
    9620.0      0.98318    
    9625.0      0.98320    
    9630.0      0.98322    
    9635.0      0.98325    
    9640.0      0.98327    
    9645.0      0.98329    
    9650.0      0.98332    
    9655.0      0.98334    
    9660.0      0.98337    
    9665.0      0.98339    
    9670.0      0.98341    
    9675.0      0.98344    
    9680.0      0.98346    
    9685.0      0.98348    
    9690.0      0.98351    
    9695.0      0.98353    
    9700.0      0.98355    
    9705.0      0.98357    
    9710.0      0.98360    
    9715.0      0.98362    
    9720.0      0.98364    
    9725.0      0.98367    
    9730.0      0.98369    
    9735.0      0.98371    
    9740.0      0.98373    
    9745.0      0.98376    
    9750.0      0.98378    
    9755.0      0.98380    
    9760.0      0.98383    
    9765.0      0.98385    
    9770.0      0.98387    
    9775.0      0.98389    
    9780.0      0.98392    
    9785.0      0.98394    
    9790.0      0.98396    
    9795.0      0.98398    
    9800.0      0.98400    
    9805.0      0.98403    
    9810.0      0.98405    
    9815.0      0.98407    
    9820.0      0.98409    
    9825.0      0.98412    
    9830.0      0.98414    
    9835.0      0.98416    
    9840.0      0.98418    
    9845.0      0.98420    
    9850.0      0.98423    
    9855.0      0.98425    
    9860.0      0.98427    
    9865.0      0.98429    
    9870.0      0.98431    
    9875.0      0.98433    
    9880.0      0.98436    
    9885.0      0.98438    
    9890.0      0.98440    
    9895.0      0.98442    
    9900.0      0.98444    
    9905.0      0.98446    
    9910.0      0.98448    
    9915.0      0.98451    
    9920.0      0.98453    
    9925.0      0.98455    
    9930.0      0.98457    
    9935.0      0.98459    
    9940.0      0.98461    
    9945.0      0.98463    
    9950.0      0.98465    
    9955.0      0.98468    
    9960.0      0.98470    
    9965.0      0.98472    
    9970.0      0.98474    
    9975.0      0.98476    
    9980.0      0.98478    
    9985.0      0.98480    
    9990.0      0.98482    
    9995.0      0.98484    
    10000.      0.98486      
